endwelcomescreen_keys.keys,endwelcomescreen_keys.rt,participant,date,expName,psychopyVersion,OS,frameRate,endinstructionscreen_keys.keys,endinstructionscreen_keys.rt,endpartnermatch_keys.keys,endpartnermatch_keys.rt,sharenextphoto_key.keys,sharenextphoto_key.rt,salience_rating,key_resp.keys,stress_level,subtract_bonus,TOTAL_TASK_BONUS,stresslevel_keypress.keys,entiretaskloop.thisRepN,entiretaskloop.thisTrialN,entiretaskloop.thisN,entiretaskloop.thisIndex,entiretaskloop.ran,TrialNumber,Partner,Condition,Photos,Feedback,FeedbackWait,WTP_ins_keys1.keys,WTP_ins_keys1.rt,WTP_ins_keys2.keys,WTP_ins_keys2.rt,decision_price,responses.keys,responses.rt,WTPTaskLoop.thisRepN,WTPTaskLoop.thisTrialN,WTPTaskLoop.thisN,WTPTaskLoop.thisIndex,WTPTaskLoop.ran,left,right,social_left,WTP_ITI,leftmoney,rightmoney,greenText,left_more_than_right,matching_prices,social_worthmore,Resume_keys.keys,Resume_keys.rt,key_resp.rt
space,0.6296,101,2024-05-21_15h20.46.422,WTP_SM_Choice,2022.2.1,MacIntel,126.5822785,,,,,,,,,,,,,,,,,,,,,,,,,,,,,,,,,,,,,,,,,,,,,,,,
,,101,2024-05-21_15h20.46.422,WTP_SM_Choice,2022.2.1,MacIntel,126.5822785,space,0.4627,,,,,,,,,,,,,,,,,,,,,,,,,,,,,,,,,,,,,,,,,,,,,,
,,101,2024-05-21_15h20.46.422,WTP_SM_Choice,2022.2.1,MacIntel,126.5822785,,,space,0.4172,space,0.394,NAN,,NAN,0,6,,0,0,0,0,1,1,Alex,Acc,Participant_Images/101/101_Images/101_Image_24.jpeg,did not like,3.613205605,,,,,,,,,,,,,,,,,,,,,,,,,
,,101,2024-05-21_15h20.46.422,WTP_SM_Choice,2022.2.1,MacIntel,126.5822785,,,,,space,0.4319,NAN,,NAN,0,6,,0,1,1,1,1,2,Alex,Acc,Participant_Images/101/101_Images/101_Image_9.jpeg,did not like,4.988446431,,,,,,,,,,,,,,,,,,,,,,,,,
,,101,2024-05-21_15h20.46.422,WTP_SM_Choice,2022.2.1,MacIntel,126.5822785,,,,,space,1.3599,NAN,,NAN,0,6,,0,2,2,2,1,3,Alex,Acc,Participant_Images/101/101_Images/101_Image_4.jpeg,liked,3.470791822,,,,,,,,,,,,,,,,,,,,,,,,,
,,101,2024-05-21_15h20.46.422,WTP_SM_Choice,2022.2.1,MacIntel,126.5822785,,,,,space,2.0672,NAN,,NAN,0,6,,0,3,3,3,1,4,Alex,Acc,Participant_Images/101/101_Images/101_Image_1.jpeg,liked,3.820572462,,,,,,,,,,,,,,,,,,,,,,,,,
,,101,2024-05-21_15h20.46.422,WTP_SM_Choice,2022.2.1,MacIntel,126.5822785,,,,,,,,,,,,,,,,,,,,,,,,space,2.5231,space,0.3232,0.01,1,0.9645,0,0,0,0,1,one_1,one_1,0,4,0.01,0.01,green,0,1,1,,,
,,101,2024-05-21_15h20.46.422,WTP_SM_Choice,2022.2.1,MacIntel,126.5822785,,,,,,,,,,,,,,,,,,,,,,,,,,,,0.01,2,1.524,0,1,1,1,1,one_2,one_2,0,5,0.02,0.01,green,1,0,0,,,
,,101,2024-05-21_15h20.46.422,WTP_SM_Choice,2022.2.1,MacIntel,126.5822785,,,,,,,,,,,,,,,,,,,,,,,,,,,,0.01,2,0.9992,0,2,2,2,1,one_3,one_3,0,6,0.03,0.01,green,1,0,0,,,
,,101,2024-05-21_15h20.46.422,WTP_SM_Choice,2022.2.1,MacIntel,126.5822785,,,,,,,,,,,,,,,,,,,,,,,,,,,,0.01,2,7.9634,0,3,3,3,1,one_4,one_4,0,1,0.04,0.01,green,1,0,0,,,
,,101,2024-05-21_15h20.46.422,WTP_SM_Choice,2022.2.1,MacIntel,126.5822785,,,,,,,,,,,,,,,,,,,,,,,,,,,,0.01,2,6.2827,0,4,4,4,1,one_5,one_5,0,2,0.05,0.01,green,1,0,0,,,
,,101,2024-05-21_15h20.46.422,WTP_SM_Choice,2022.2.1,MacIntel,126.5822785,,,,,,,NAN,,NAN,0.05,5.95,,0,4,4,4,1,5,Alex,Acc,Participant_Images/101/101_Images/101_Image_3.jpeg,liked,2.455989137,,,,,,,,,,,,,,,,,,,,,,,,,
,,101,2024-05-21_15h20.46.422,WTP_SM_Choice,2022.2.1,MacIntel,126.5822785,,,,,space,5.3198,NAN,,NAN,0.05,5.95,,0,5,5,5,1,6,Alex,Acc,Participant_Images/101/101_Images/101_Image_13.jpeg,liked,3.79605092,,,,,,,,,,,,,,,,,,,,,,,,,
,,101,2024-05-21_15h20.46.422,WTP_SM_Choice,2022.2.1,MacIntel,126.5822785,,,,,space,1.4913,NAN,,NAN,0.05,5.95,,0,6,6,6,1,7,Alex,Acc,Participant_Images/101/101_Images/101_Image_2.jpeg,did not like,3.562416326,,,,,,,,,,,,,,,,,,,,,,,,,
,,101,2024-05-21_15h20.46.422,WTP_SM_Choice,2022.2.1,MacIntel,126.5822785,,,,,space,1.2771,NAN,,NAN,0.05,5.95,,0,7,7,7,1,8,Alex,Acc,Participant_Images/101/101_Images/101_Image_25.jpeg,liked,2.843822497,,,,,,,,,,,,,,,,,,,,,,,,,
,,101,2024-05-21_15h20.46.422,WTP_SM_Choice,2022.2.1,MacIntel,126.5822785,,,,,space,2.6003,NAN,,NAN,0.05,5.95,,0,8,8,8,1,9,Alex,Acc,Participant_Images/101/101_Images/101_Image_8.jpeg,did not like,3.546495948,,,,,,,,,,,,,,,,,,,,,,,,,
,,101,2024-05-21_15h20.46.422,WTP_SM_Choice,2022.2.1,MacIntel,126.5822785,,,,,,,,,,,,,,,,,,,,,,,,space,6.4069,space,0.4148,0.02,2,0.8158,0,0,0,0,1,two_1,two_1,0,5,0.01,0.02,green,0,0,1,,,
,,101,2024-05-21_15h20.46.422,WTP_SM_Choice,2022.2.1,MacIntel,126.5822785,,,,,,,,,,,,,,,,,,,,,,,,,,,,0.02,2,4.8154,0,1,1,1,1,two_2,two_2,0,1,0.02,0.02,green,0,1,1,,,
,,101,2024-05-21_15h20.46.422,WTP_SM_Choice,2022.2.1,MacIntel,126.5822785,,,,,,,,,,,,,,,,,,,,,,,,,,,,,,,0,2,2,2,1,two_3,two_3,0,2,0.03,0.02,green,1,0,0,,,
,,101,2024-05-21_15h20.46.422,WTP_SM_Choice,2022.2.1,MacIntel,126.5822785,,,,,,,,,,,,,,,,,,,,,,,,,,,,0.02,2,3.9684,0,3,3,3,1,two_4,two_4,0,4,0.04,0.02,green,1,0,0,,,
,,101,2024-05-21_15h20.46.422,WTP_SM_Choice,2022.2.1,MacIntel,126.5822785,,,,,,,,,,,,,,,,,,,,,,,,,,,,,,,0,4,4,4,1,two_5,two_5,0,3,0.05,0.02,green,1,0,0,,,
,,101,2024-05-21_15h20.46.422,WTP_SM_Choice,2022.2.1,MacIntel,126.5822785,,,,,,,NAN,,NAN,0.11,5.89,,0,9,9,9,1,10,Alex,Acc,Participant_Images/101/101_Images/101_Image_7.jpeg,did not like,1.672012706,,,,,,,,,,,,,,,,,,,,,,,,,
,,101,2024-05-21_15h20.46.422,WTP_SM_Choice,2022.2.1,MacIntel,126.5822785,,,,,space,8.8077,NAN,,NAN,0.11,5.89,,0,10,10,10,1,11,Alex,Acc,Participant_Images/101/101_Images/101_Image_10.jpeg,liked,2.50187214,,,,,,,,,,,,,,,,,,,,,,,,,
,,101,2024-05-21_15h20.46.422,WTP_SM_Choice,2022.2.1,MacIntel,126.5822785,,,,,space,41.3532,NAN,,NAN,0.11,5.89,,0,11,11,11,1,12,Alex,Acc,Participant_Images/101/101_Images/101_Image_20.jpeg,liked,2.071164779,,,,,,,,,,,,,,,,,,,,,,,,,
,,101,2024-05-21_15h20.46.422,WTP_SM_Choice,2022.2.1,MacIntel,126.5822785,,,,,space,29.0334,NAN,,NAN,0.11,5.89,,0,12,12,12,1,13,Alex,Acc,Participant_Images/101/101_Images/101_Image_14.jpeg,liked,5.336503566,,,,,,,,,,,,,,,,,,,,,,,,,
,,101,2024-05-21_15h20.46.422,WTP_SM_Choice,2022.2.1,MacIntel,126.5822785,,,,,space,2.3463,NAN,,NAN,0.11,5.89,,0,13,13,13,1,14,Alex,Acc,Participant_Images/101/101_Images/101_Image_21.jpeg,liked,2.642157193,,,,,,,,,,,,,,,,,,,,,,,,,
,,101,2024-05-21_15h20.46.422,WTP_SM_Choice,2022.2.1,MacIntel,126.5822785,,,,,,,,,,,,,,,,,,,,,,,,space,1.7574,space,0.4169,0.01,1,0.6297,0,0,0,0,1,three_1,three_1,0,4,0.01,0.01,green,0,1,1,,,
,,101,2024-05-21_15h20.46.422,WTP_SM_Choice,2022.2.1,MacIntel,126.5822785,,,,,,,,,,,,,,,,,,,,,,,,,,,,,,,0,1,1,1,1,three_2,three_2,0,5,0.02,0.01,green,1,0,0,,,
,,101,2024-05-21_15h20.46.422,WTP_SM_Choice,2022.2.1,MacIntel,126.5822785,,,,,,,,,,,,,,,,,,,,,,,,,,,,,,,0,2,2,2,1,three_3,three_3,0,6,0.03,0.01,green,1,0,0,,,
,,101,2024-05-21_15h20.46.422,WTP_SM_Choice,2022.2.1,MacIntel,126.5822785,,,,,,,,,,,,,,,,,,,,,,,,,,,,,,,0,3,3,3,1,three_4,three_4,0,1,0.04,0.01,green,1,0,0,,,
,,101,2024-05-21_15h20.46.422,WTP_SM_Choice,2022.2.1,MacIntel,126.5822785,,,,,,,,,,,,,,,,,,,,,,,,,,,,,,,0,4,4,4,1,three_5,three_5,0,2,0.05,0.01,green,1,0,0,,,
,,101,2024-05-21_15h20.46.422,WTP_SM_Choice,2022.2.1,MacIntel,126.5822785,,,,,,,NAN,,NAN,0.12,5.88,,0,14,14,14,1,15,Alex,Acc,Participant_Images/101/101_Images/101_Image_5.jpeg,did not like,4.456234322,,,,,,,,,,,,,,,,,,,,,,,,,
,,101,2024-05-21_15h20.46.422,WTP_SM_Choice,2022.2.1,MacIntel,126.5822785,,,,,space,294.2798,NAN,,NAN,0.12,5.88,,0,15,15,15,1,16,Alex,Acc,Participant_Images/101/101_Images/101_Image_17.jpeg,did not like,4.438512181,,,,,,,,,,,,,,,,,,,,,,,,,
,,101,2024-05-21_15h20.46.422,WTP_SM_Choice,2022.2.1,MacIntel,126.5822785,,,,,space,1.9083,NAN,,NAN,0.12,5.88,,0,16,16,16,1,17,Alex,Acc,Participant_Images/101/101_Images/101_Image_23.jpeg,did not like,1.779333479,,,,,,,,,,,,,,,,,,,,,,,,,
,,101,2024-05-21_15h20.46.422,WTP_SM_Choice,2022.2.1,MacIntel,126.5822785,,,,,space,9.3072,NAN,,NAN,0.12,5.88,,0,17,17,17,1,18,Alex,Acc,Participant_Images/101/101_Images/101_Image_16.jpeg,did not like,4.312468682,,,,,,,,,,,,,,,,,,,,,,,,,
,,101,2024-05-21_15h20.46.422,WTP_SM_Choice,2022.2.1,MacIntel,126.5822785,,,,,space,1.2927,NAN,,NAN,0.12,5.88,,0,18,18,18,1,19,Alex,Acc,Participant_Images/101/101_Images/101_Image_22.jpeg,did not like,2.7105123,,,,,,,,,,,,,,,,,,,,,,,,,
,,101,2024-05-21_15h20.46.422,WTP_SM_Choice,2022.2.1,MacIntel,126.5822785,,,,,,,,,,,,,,,,,,,,,,,,space,1.2809,space,0.3338,0.01,1,1.0581,0,0,0,0,1,four_1,four_1,0,5,0.01,0.02,green,0,0,1,,,
,,101,2024-05-21_15h20.46.422,WTP_SM_Choice,2022.2.1,MacIntel,126.5822785,,,,,,,,,,,,,,,,,,,,,,,,,,,,,,,0,1,1,1,1,four_2,four_2,0,1,0.02,0.02,green,0,1,1,,,
,,101,2024-05-21_15h20.46.422,WTP_SM_Choice,2022.2.1,MacIntel,126.5822785,,,,,,,,,,,,,,,,,,,,,,,,,,,,,,,0,2,2,2,1,four_3,four_3,0,2,0.03,0.02,green,1,0,0,,,
,,101,2024-05-21_15h20.46.422,WTP_SM_Choice,2022.2.1,MacIntel,126.5822785,,,,,,,,,,,,,,,,,,,,,,,,,,,,,,,0,3,3,3,1,four_4,four_4,0,4,0.04,0.02,green,1,0,0,,,
,,101,2024-05-21_15h20.46.422,WTP_SM_Choice,2022.2.1,MacIntel,126.5822785,,,,,,,,,,,,,,,,,,,,,,,,,,,,,,,0,4,4,4,1,four_5,four_5,0,3,0.05,0.02,green,1,0,0,,,
,,101,2024-05-21_15h20.46.422,WTP_SM_Choice,2022.2.1,MacIntel,126.5822785,,,,,,,NAN,,NAN,0.13,5.87,,0,19,19,19,1,20,Alex,Acc,Participant_Images/101/101_Images/101_Image_12.jpeg,did not like,3.602308302,,,,,,,,,,,,,,,,,,,,,,,,,
,,101,2024-05-21_15h20.46.422,WTP_SM_Choice,2022.2.1,MacIntel,126.5822785,,,,,space,206.5509,NAN,,NAN,0.13,5.87,,0,20,20,20,1,21,Alex,Acc,Participant_Images/101/101_Images/101_Image_15.jpeg,liked,4.106391878,,,,,,,,,,,,,,,,,,,,,,,,,
,,101,2024-05-21_15h20.46.422,WTP_SM_Choice,2022.2.1,MacIntel,126.5822785,,,,,space,6.7038,NAN,,NAN,0.13,5.87,,0,21,21,21,1,22,Alex,Acc,Participant_Images/101/101_Images/101_Image_19.jpeg,liked,3.799433026,,,,,,,,,,,,,,,,,,,,,,,,,
,,101,2024-05-21_15h20.46.422,WTP_SM_Choice,2022.2.1,MacIntel,126.5822785,,,,,space,16.2065,NAN,,NAN,0.13,5.87,,0,22,22,22,1,23,Alex,Acc,Participant_Images/101/101_Images/101_Image_18.jpeg,liked,5.246980764,,,,,,,,,,,,,,,,,,,,,,,,,
,,101,2024-05-21_15h20.46.422,WTP_SM_Choice,2022.2.1,MacIntel,126.5822785,,,,,space,1.1012,NAN,,NAN,0.13,5.87,,0,23,23,23,1,24,Alex,Acc,Participant_Images/101/101_Images/101_Image_6.jpeg,liked,3.30081769,,,,,,,,,,,,,,,,,,,,,,,,,
,,101,2024-05-21_15h20.46.422,WTP_SM_Choice,2022.2.1,MacIntel,126.5822785,,,,,,,,,,,,,,,,,,,,,,,,space,2.1179,space,0.4673,0.01,1,4.5363,0,0,0,0,1,five_1,five_1,0,4,0.01,0.01,green,0,1,1,,,
,,101,2024-05-21_15h20.46.422,WTP_SM_Choice,2022.2.1,MacIntel,126.5822785,,,,,,,,,,,,,,,,,,,,,,,,,,,,0.02,1,5.463,0,1,1,1,1,five_2,five_2,0,5,0.02,0.01,green,1,0,0,,,
,,101,2024-05-21_15h20.46.422,WTP_SM_Choice,2022.2.1,MacIntel,126.5822785,,,,,,,,,,,,,,,,,,,,,,,,,,,,0.03,1,1.7162,0,2,2,2,1,five_3,five_3,0,6,0.03,0.01,green,1,0,0,,,
,,101,2024-05-21_15h20.46.422,WTP_SM_Choice,2022.2.1,MacIntel,126.5822785,,,,,,,,,,,,,,,,,,,,,,,,,,,,0.04,1,3.225,0,3,3,3,1,five_4,five_4,0,1,0.04,0.01,green,1,0,0,,,
,,101,2024-05-21_15h20.46.422,WTP_SM_Choice,2022.2.1,MacIntel,126.5822785,,,,,,,,,,,,,,,,,,,,,,,,,,,,0.05,1,5.4454,0,4,4,4,1,five_5,five_5,0,2,0.05,0.01,green,1,0,0,,,
,,101,2024-05-21_15h20.46.422,WTP_SM_Choice,2022.2.1,MacIntel,126.5822785,,,,,,,NAN,space,5,0.28,5.72,,0,24,24,24,1,25,Alex,Acc,Participant_Images/101/101_Images/101_Image_11.jpeg,did not like,1.661473164,,,,,,,,,,,,,,,,,,,,,,,space,1.7414,0.2757
,,101,2024-05-21_15h20.46.422,WTP_SM_Choice,2022.2.1,MacIntel,126.5822785,,,space,10.1295,space,3.8032,NAN,,NAN,0.28,5.72,,0,25,25,25,1,26,Riley,Acc,Participant_Images/101/101_Images/101_Image_20.jpeg,liked,3.613205605,,,,,,,,,,,,,,,,,,,,,,,,,
,,101,2024-05-21_15h20.46.422,WTP_SM_Choice,2022.2.1,MacIntel,126.5822785,,,,,space,2.5888,NAN,,NAN,0.28,5.72,,0,26,26,26,1,27,Riley,Acc,Participant_Images/101/101_Images/101_Image_22.jpeg,liked,3.470791822,,,,,,,,,,,,,,,,,,,,,,,,,
,,101,2024-05-21_15h20.46.422,WTP_SM_Choice,2022.2.1,MacIntel,126.5822785,,,,,space,0.1338,NAN,,NAN,0.28,5.72,,0,27,27,27,1,28,Riley,Acc,Participant_Images/101/101_Images/101_Image_25.jpeg,did not like,2.455989137,,,,,,,,,,,,,,,,,,,,,,,,,
,,101,2024-05-21_15h20.46.422,WTP_SM_Choice,2022.2.1,MacIntel,126.5822785,,,,,space,4.4912,NAN,,NAN,0.28,5.72,,0,28,28,28,1,29,Riley,Acc,Participant_Images/101/101_Images/101_Image_12.jpeg,liked,3.79605092,,,,,,,,,,,,,,,,,,,,,,,,,
,,101,2024-05-21_15h20.46.422,WTP_SM_Choice,2022.2.1,MacIntel,126.5822785,,,,,,,,,,,,,,,,,,,,,,,,space,1.7435,space,0.2838,0.01,1,1.1158,0,0,0,0,1,six_1,six_1,0,5,0.01,0.02,green,0,0,1,,,
,,101,2024-05-21_15h20.46.422,WTP_SM_Choice,2022.2.1,MacIntel,126.5822785,,,,,,,,,,,,,,,,,,,,,,,,,,,,0.02,1,1.5949,0,1,1,1,1,six_2,six_2,0,1,0.02,0.02,green,0,1,1,,,
,,101,2024-05-21_15h20.46.422,WTP_SM_Choice,2022.2.1,MacIntel,126.5822785,,,,,,,,,,,,,,,,,,,,,,,,,,,,0.03,1,1.874,0,2,2,2,1,six_3,six_3,0,2,0.03,0.02,green,1,0,0,,,
,,101,2024-05-21_15h20.46.422,WTP_SM_Choice,2022.2.1,MacIntel,126.5822785,,,,,,,,,,,,,,,,,,,,,,,,,,,,0.04,1,2.3636,0,3,3,3,1,six_4,six_4,0,4,0.04,0.02,green,1,0,0,,,
,,101,2024-05-21_15h20.46.422,WTP_SM_Choice,2022.2.1,MacIntel,126.5822785,,,,,,,,,,,,,,,,,,,,,,,,,,,,0.05,1,3.0235,0,4,4,4,1,six_5,six_5,0,3,0.05,0.02,green,1,0,0,,,
,,101,2024-05-21_15h20.46.422,WTP_SM_Choice,2022.2.1,MacIntel,126.5822785,,,,,,,NAN,,NAN,0.43,5.57,,0,29,29,29,1,30,Riley,Acc,Participant_Images/101/101_Images/101_Image_9.jpeg,did not like,3.562416326,,,,,,,,,,,,,,,,,,,,,,,,,
,,101,2024-05-21_15h20.46.422,WTP_SM_Choice,2022.2.1,MacIntel,126.5822785,,,,,space,1.9506,NAN,,NAN,0.43,5.57,,0,30,30,30,1,31,Riley,Acc,Participant_Images/101/101_Images/101_Image_5.jpeg,liked,2.843822497,,,,,,,,,,,,,,,,,,,,,,,,,
,,101,2024-05-21_15h20.46.422,WTP_SM_Choice,2022.2.1,MacIntel,126.5822785,,,,,space,6.0594,NAN,,NAN,0.43,5.57,,0,31,31,31,1,32,Riley,Acc,Participant_Images/101/101_Images/101_Image_14.jpeg,liked,3.546495948,,,,,,,,,,,,,,,,,,,,,,,,,
,,101,2024-05-21_15h20.46.422,WTP_SM_Choice,2022.2.1,MacIntel,126.5822785,,,,,space,2.6366,NAN,,NAN,0.43,5.57,,0,32,32,32,1,33,Riley,Acc,Participant_Images/101/101_Images/101_Image_18.jpeg,did not like,1.672012706,,,,,,,,,,,,,,,,,,,,,,,,,
,,101,2024-05-21_15h20.46.422,WTP_SM_Choice,2022.2.1,MacIntel,126.5822785,,,,,space,0.415,NAN,,NAN,0.43,5.57,,0,33,33,33,1,34,Riley,Acc,Participant_Images/101/101_Images/101_Image_10.jpeg,liked,4.942172136,,,,,,,,,,,,,,,,,,,,,,,,,
,,101,2024-05-21_15h20.46.422,WTP_SM_Choice,2022.2.1,MacIntel,126.5822785,,,,,,,,,,,,,,,,,,,,,,,,space,0.9505,space,0.2887,0.01,1,1.0843,0,0,0,0,1,seven_1,seven_1,0,4,0.01,0.01,green,0,1,1,,,
,,101,2024-05-21_15h20.46.422,WTP_SM_Choice,2022.2.1,MacIntel,126.5822785,,,,,,,,,,,,,,,,,,,,,,,,,,,,0.02,1,1.6784,0,1,1,1,1,seven_2,seven_2,0,5,0.02,0.01,green,1,0,0,,,
,,101,2024-05-21_15h20.46.422,WTP_SM_Choice,2022.2.1,MacIntel,126.5822785,,,,,,,,,,,,,,,,,,,,,,,,,,,,0.03,1,2.105,0,2,2,2,1,seven_3,seven_3,0,6,0.03,0.01,green,1,0,0,,,
,,101,2024-05-21_15h20.46.422,WTP_SM_Choice,2022.2.1,MacIntel,126.5822785,,,,,,,,,,,,,,,,,,,,,,,,,,,,,,,0,3,3,3,1,seven_4,seven_4,0,1,0.04,0.01,green,1,0,0,,,
,,101,2024-05-21_15h20.46.422,WTP_SM_Choice,2022.2.1,MacIntel,126.5822785,,,,,,,,,,,,,,,,,,,,,,,,,,,,,,,0,4,4,4,1,seven_5,seven_5,0,2,0.05,0.01,green,1,0,0,,,
,,101,2024-05-21_15h20.46.422,WTP_SM_Choice,2022.2.1,MacIntel,126.5822785,,,,,,,NAN,,NAN,0.49,5.51,,0,34,34,34,1,35,Riley,Acc,Participant_Images/101/101_Images/101_Image_16.jpeg,liked,2.50187214,,,,,,,,,,,,,,,,,,,,,,,,,
,,101,2024-05-21_15h20.46.422,WTP_SM_Choice,2022.2.1,MacIntel,126.5822785,,,,,space,5.5181,NAN,,NAN,0.49,5.51,,0,35,35,35,1,36,Riley,Acc,Participant_Images/101/101_Images/101_Image_23.jpeg,liked,2.642157193,,,,,,,,,,,,,,,,,,,,,,,,,
,,101,2024-05-21_15h20.46.422,WTP_SM_Choice,2022.2.1,MacIntel,126.5822785,,,,,space,0.3779,NAN,,NAN,0.49,5.51,,0,36,36,36,1,37,Riley,Acc,Participant_Images/101/101_Images/101_Image_4.jpeg,liked,4.456234322,,,,,,,,,,,,,,,,,,,,,,,,,
,,101,2024-05-21_15h20.46.422,WTP_SM_Choice,2022.2.1,MacIntel,126.5822785,,,,,space,1.5011,NAN,,NAN,0.49,5.51,,0,37,37,37,1,38,Riley,Acc,Participant_Images/101/101_Images/101_Image_24.jpeg,liked,4.438512181,,,,,,,,,,,,,,,,,,,,,,,,,
,,101,2024-05-21_15h20.46.422,WTP_SM_Choice,2022.2.1,MacIntel,126.5822785,,,,,space,3.7475,NAN,,NAN,0.49,5.51,,0,38,38,38,1,39,Riley,Acc,Participant_Images/101/101_Images/101_Image_15.jpeg,liked,2.682944783,,,,,,,,,,,,,,,,,,,,,,,,,
,,101,2024-05-21_15h20.46.422,WTP_SM_Choice,2022.2.1,MacIntel,126.5822785,,,,,,,,,,,,,,,,,,,,,,,,space,1.464,space,0.3068,0.01,1,0.9956,0,0,0,0,1,eight_1,eight_1,0,5,0.01,0.02,green,0,0,1,,,
,,101,2024-05-21_15h20.46.422,WTP_SM_Choice,2022.2.1,MacIntel,126.5822785,,,,,,,,,,,,,,,,,,,,,,,,,,,,0.02,1,5.2172,0,1,1,1,1,eight_2,eight_2,0,1,0.02,0.02,green,0,1,1,,,
,,101,2024-05-21_15h20.46.422,WTP_SM_Choice,2022.2.1,MacIntel,126.5822785,,,,,,,,,,,,,,,,,,,,,,,,,,,,0.03,1,3.4378,0,2,2,2,1,eight_3,eight_3,0,2,0.03,0.02,green,1,0,0,,,
,,101,2024-05-21_15h20.46.422,WTP_SM_Choice,2022.2.1,MacIntel,126.5822785,,,,,,,,,,,,,,,,,,,,,,,,,,,,0.04,1,9.5482,0,3,3,3,1,eight_4,eight_4,0,4,0.04,0.02,green,1,0,0,,,
,,101,2024-05-21_15h20.46.422,WTP_SM_Choice,2022.2.1,MacIntel,126.5822785,,,,,,,,,,,,,,,,,,,,,,,,,,,,0.05,1,3.2027,0,4,4,4,1,eight_5,eight_5,0,3,0.05,0.02,green,1,0,0,,,
,,101,2024-05-21_15h20.46.422,WTP_SM_Choice,2022.2.1,MacIntel,126.5822785,,,,,,,NAN,,NAN,0.64,5.36,,0,39,39,39,1,40,Riley,Acc,Participant_Images/101/101_Images/101_Image_6.jpeg,liked,4.51984296,,,,,,,,,,,,,,,,,,,,,,,,,
,,101,2024-05-21_15h20.46.422,WTP_SM_Choice,2022.2.1,MacIntel,126.5822785,,,,,space,0.4175,NAN,,NAN,0.64,5.36,,0,40,40,40,1,41,Riley,Acc,Participant_Images/101/101_Images/101_Image_19.jpeg,liked,3.195382774,,,,,,,,,,,,,,,,,,,,,,,,,
,,101,2024-05-21_15h20.46.422,WTP_SM_Choice,2022.2.1,MacIntel,126.5822785,,,,,space,411.3308,NAN,,NAN,0.64,5.36,,0,41,41,41,1,42,Riley,Acc,Participant_Images/101/101_Images/101_Image_3.jpeg,did not like,1.779333479,,,,,,,,,,,,,,,,,,,,,,,,,
,,101,2024-05-21_15h20.46.422,WTP_SM_Choice,2022.2.1,MacIntel,126.5822785,,,,,space,35.2257,NAN,,NAN,0.64,5.36,,0,42,42,42,1,43,Riley,Acc,Participant_Images/101/101_Images/101_Image_7.jpeg,liked,4.312468682,,,,,,,,,,,,,,,,,,,,,,,,,
,,101,2024-05-21_15h20.46.422,WTP_SM_Choice,2022.2.1,MacIntel,126.5822785,,,,,space,327.0072,NAN,,NAN,0.64,5.36,,0,43,43,43,1,44,Riley,Acc,Participant_Images/101/101_Images/101_Image_8.jpeg,did not like,4.940433059,,,,,,,,,,,,,,,,,,,,,,,,,
,,101,2024-05-21_15h20.46.422,WTP_SM_Choice,2022.2.1,MacIntel,126.5822785,,,,,,,,,,,,,,,,,,,,,,,,space,947.53,space,0.5108,0.01,1,0.8641,0,0,0,0,1,nine_1,nine_1,0,4,0.01,0.01,green,0,1,1,,,
,,101,2024-05-21_15h20.46.422,WTP_SM_Choice,2022.2.1,MacIntel,126.5822785,,,,,,,,,,,,,,,,,,,,,,,,,,,,,,,0,1,1,1,1,nine_2,nine_2,0,5,0.02,0.01,green,1,0,0,,,
,,101,2024-05-21_15h20.46.422,WTP_SM_Choice,2022.2.1,MacIntel,126.5822785,,,,,,,,,,,,,,,,,,,,,,,,,,,,,,,0,2,2,2,1,nine_3,nine_3,0,6,0.03,0.01,green,1,0,0,,,
,,101,2024-05-21_15h20.46.422,WTP_SM_Choice,2022.2.1,MacIntel,126.5822785,,,,,,,,,,,,,,,,,,,,,,,,,,,,,,,0,3,3,3,1,nine_4,nine_4,0,1,0.04,0.01,green,1,0,0,,,
,,101,2024-05-21_15h20.46.422,WTP_SM_Choice,2022.2.1,MacIntel,126.5822785,,,,,,,,,,,,,,,,,,,,,,,,,,,,0.05,1,8.4069,0,4,4,4,1,nine_5,nine_5,0,2,0.05,0.01,green,1,0,0,,,
,,101,2024-05-21_15h20.46.422,WTP_SM_Choice,2022.2.1,MacIntel,126.5822785,,,,,,,NAN,,NAN,0.7,5.3,,0,44,44,44,1,45,Riley,Acc,Participant_Images/101/101_Images/101_Image_21.jpeg,liked,2.7105123,,,,,,,,,,,,,,,,,,,,,,,,,
,,101,2024-05-21_15h20.46.422,WTP_SM_Choice,2022.2.1,MacIntel,126.5822785,,,,,space,1.9815,NAN,,NAN,0.7,5.3,,0,45,45,45,1,46,Riley,Acc,Participant_Images/101/101_Images/101_Image_1.jpeg,liked,3.602308302,,,,,,,,,,,,,,,,,,,,,,,,,
,,101,2024-05-21_15h20.46.422,WTP_SM_Choice,2022.2.1,MacIntel,126.5822785,,,,,space,8.1577,NAN,,NAN,0.7,5.3,,0,46,46,46,1,47,Riley,Acc,Participant_Images/101/101_Images/101_Image_11.jpeg,liked,4.106391878,,,,,,,,,,,,,,,,,,,,,,,,,
,,101,2024-05-21_15h20.46.422,WTP_SM_Choice,2022.2.1,MacIntel,126.5822785,,,,,space,1.9986,NAN,,NAN,0.7,5.3,,0,47,47,47,1,48,Riley,Acc,Participant_Images/101/101_Images/101_Image_2.jpeg,liked,5.246980764,,,,,,,,,,,,,,,,,,,,,,,,,
,,101,2024-05-21_15h20.46.422,WTP_SM_Choice,2022.2.1,MacIntel,126.5822785,,,,,space,8.5021,NAN,,NAN,0.7,5.3,,0,48,48,48,1,49,Riley,Acc,Participant_Images/101/101_Images/101_Image_13.jpeg,liked,3.30081769,,,,,,,,,,,,,,,,,,,,,,,,,
,,101,2024-05-21_15h20.46.422,WTP_SM_Choice,2022.2.1,MacIntel,126.5822785,,,,,,,,,,,,,,,,,,,,,,,,space,1.126,space,0.5167,0.02,2,1.0878,0,0,0,0,1,ten_1,ten_1,0,5,0.01,0.02,green,0,0,1,,,
,,101,2024-05-21_15h20.46.422,WTP_SM_Choice,2022.2.1,MacIntel,126.5822785,,,,,,,,,,,,,,,,,,,,,,,,,,,,0.02,2,4.4208,0,1,1,1,1,ten_2,ten_2,0,1,0.02,0.02,green,0,1,1,,,
,,101,2024-05-21_15h20.46.422,WTP_SM_Choice,2022.2.1,MacIntel,126.5822785,,,,,,,,,,,,,,,,,,,,,,,,,,,,0.03,1,2.2424,0,2,2,2,1,ten_3,ten_3,0,2,0.03,0.02,green,1,0,0,,,
,,101,2024-05-21_15h20.46.422,WTP_SM_Choice,2022.2.1,MacIntel,126.5822785,,,,,,,,,,,,,,,,,,,,,,,,,,,,0.04,1,4.0794,0,3,3,3,1,ten_4,ten_4,0,4,0.04,0.02,green,1,0,0,,,
,,101,2024-05-21_15h20.46.422,WTP_SM_Choice,2022.2.1,MacIntel,126.5822785,,,,,,,,,,,,,,,,,,,,,,,,,,,,,,,0,4,4,4,1,ten_5,ten_5,0,3,0.05,0.02,green,1,0,0,,,
,,101,2024-05-21_15h20.46.422,WTP_SM_Choice,2022.2.1,MacIntel,126.5822785,,,,,,,NAN,space,5,0.81,5.19,,0,49,49,49,1,50,Riley,Acc,Participant_Images/101/101_Images/101_Image_17.jpeg,liked,1.661473164,,,,,,,,,,,,,,,,,,,,,,,space,11.4904,1.085
,,101,2024-05-21_15h20.46.422,WTP_SM_Choice,2022.2.1,MacIntel,126.5822785,,,space,12.5175,space,7.9843,NAN,,NAN,0.81,5.19,,0,50,50,50,1,51,Sam,Rej,Participant_Images/101/101_Images/101_Image_4.jpeg,liked,3.613205605,,,,,,,,,,,,,,,,,,,,,,,,,
,,101,2024-05-21_15h20.46.422,WTP_SM_Choice,2022.2.1,MacIntel,126.5822785,,,,,space,1.6754,NAN,,NAN,0.81,5.19,,0,51,51,51,1,52,Sam,Rej,Participant_Images/101/101_Images/101_Image_21.jpeg,did not like,4.988446431,,,,,,,,,,,,,,,,,,,,,,,,,
,,101,2024-05-21_15h20.46.422,WTP_SM_Choice,2022.2.1,MacIntel,126.5822785,,,,,space,301.0742,NAN,,NAN,0.81,5.19,,0,52,52,52,1,53,Sam,Rej,Participant_Images/101/101_Images/101_Image_16.jpeg,did not like,3.470791822,,,,,,,,,,,,,,,,,,,,,,,,,
,,101,2024-05-21_15h20.46.422,WTP_SM_Choice,2022.2.1,MacIntel,126.5822785,,,,,space,15.0459,NAN,,NAN,0.81,5.19,,0,53,53,53,1,54,Sam,Rej,Participant_Images/101/101_Images/101_Image_8.jpeg,liked,3.820572462,,,,,,,,,,,,,,,,,,,,,,,,,
,,101,2024-05-21_15h20.46.422,WTP_SM_Choice,2022.2.1,MacIntel,126.5822785,,,,,,,,,,,,,,,,,,,,,,,,space,3.3689,space,1.1839,,,,0,0,0,0,1,eleven_1,eleven_1,0,4,0.01,0.01,green,0,1,1,,,
,,101,2024-05-21_15h20.46.422,WTP_SM_Choice,2022.2.1,MacIntel,126.5822785,,,,,,,,,,,,,,,,,,,,,,,,,,,,,,,0,1,1,1,1,eleven_2,eleven_2,0,5,0.02,0.01,green,1,0,0,,,
,,101,2024-05-21_15h20.46.422,WTP_SM_Choice,2022.2.1,MacIntel,126.5822785,,,,,,,,,,,,,,,,,,,,,,,,,,,,,,,0,2,2,2,1,eleven_3,eleven_3,0,6,0.03,0.01,green,1,0,0,,,
,,101,2024-05-21_15h20.46.422,WTP_SM_Choice,2022.2.1,MacIntel,126.5822785,,,,,,,,,,,,,,,,,,,,,,,,,,,,,,,0,3,3,3,1,eleven_4,eleven_4,0,1,0.04,0.01,green,1,0,0,,,
,,101,2024-05-21_15h20.46.422,WTP_SM_Choice,2022.2.1,MacIntel,126.5822785,,,,,,,,,,,,,,,,,,,,,,,,,,,,,,,0,4,4,4,1,eleven_5,eleven_5,0,2,0.05,0.01,green,1,0,0,,,
,,101,2024-05-21_15h20.46.422,WTP_SM_Choice,2022.2.1,MacIntel,126.5822785,,,,,,,NAN,,NAN,0.81,5.19,,0,54,54,54,1,55,Sam,Rej,Participant_Images/101/101_Images/101_Image_15.jpeg,liked,2.455989137,,,,,,,,,,,,,,,,,,,,,,,,,
,,101,2024-05-21_15h20.46.422,WTP_SM_Choice,2022.2.1,MacIntel,126.5822785,,,,,space,2.0449,NAN,,NAN,0.81,5.19,,0,55,55,55,1,56,Sam,Rej,Participant_Images/101/101_Images/101_Image_20.jpeg,did not like,3.79605092,,,,,,,,,,,,,,,,,,,,,,,,,
,,101,2024-05-21_15h20.46.422,WTP_SM_Choice,2022.2.1,MacIntel,126.5822785,,,,,space,6.6526,NAN,,NAN,0.81,5.19,,0,56,56,56,1,57,Sam,Rej,Participant_Images/101/101_Images/101_Image_17.jpeg,did not like,3.562416326,,,,,,,,,,,,,,,,,,,,,,,,,
,,101,2024-05-21_15h20.46.422,WTP_SM_Choice,2022.2.1,MacIntel,126.5822785,,,,,space,10.6214,NAN,,NAN,0.81,5.19,,0,57,57,57,1,58,Sam,Rej,Participant_Images/101/101_Images/101_Image_22.jpeg,did not like,3.546495948,,,,,,,,,,,,,,,,,,,,,,,,,
,,101,2024-05-21_15h20.46.422,WTP_SM_Choice,2022.2.1,MacIntel,126.5822785,,,,,space,0.7166,NAN,,NAN,0.81,5.19,,0,58,58,58,1,59,Sam,Rej,Participant_Images/101/101_Images/101_Image_7.jpeg,did not like,1.672012706,,,,,,,,,,,,,,,,,,,,,,,,,
,,101,2024-05-21_15h20.46.422,WTP_SM_Choice,2022.2.1,MacIntel,126.5822785,,,,,,,,,,,,,,,,,,,,,,,,space,11.0598,space,0.8534,0.02,2,7.2419,0,0,0,0,1,twelve_1,twelve_1,0,5,0.01,0.02,green,0,0,1,,,
,,101,2024-05-21_15h20.46.422,WTP_SM_Choice,2022.2.1,MacIntel,126.5822785,,,,,,,,,,,,,,,,,,,,,,,,,,,,0.02,2,6.1417,0,1,1,1,1,twelve_2,twelve_2,0,1,0.02,0.02,green,0,1,1,,,
,,101,2024-05-21_15h20.46.422,WTP_SM_Choice,2022.2.1,MacIntel,126.5822785,,,,,,,,,,,,,,,,,,,,,,,,,,,,,,,0,2,2,2,1,twelve_3,twelve_3,0,2,0.03,0.02,green,1,0,0,,,
,,101,2024-05-21_15h20.46.422,WTP_SM_Choice,2022.2.1,MacIntel,126.5822785,,,,,,,,,,,,,,,,,,,,,,,,,,,,,,,0,3,3,3,1,twelve_4,twelve_4,0,4,0.04,0.02,green,1,0,0,,,
,,101,2024-05-21_15h20.46.422,WTP_SM_Choice,2022.2.1,MacIntel,126.5822785,,,,,,,,,,,,,,,,,,,,,,,,,,,,0.05,1,7.9999,0,4,4,4,1,twelve_5,twelve_5,0,3,0.05,0.02,green,1,0,0,,,
,,101,2024-05-21_15h20.46.422,WTP_SM_Choice,2022.2.1,MacIntel,126.5822785,,,,,,,NAN,,NAN,0.9,5.1,,0,59,59,59,1,60,Sam,Rej,Participant_Images/101/101_Images/101_Image_25.jpeg,liked,4.942172136,,,,,,,,,,,,,,,,,,,,,,,,,
,,101,2024-05-21_15h20.46.422,WTP_SM_Choice,2022.2.1,MacIntel,126.5822785,,,,,space,12.7383,NAN,,NAN,0.9,5.1,,0,60,60,60,1,61,Sam,Rej,Participant_Images/101/101_Images/101_Image_3.jpeg,did not like,2.50187214,,,,,,,,,,,,,,,,,,,,,,,,,
,,101,2024-05-21_15h20.46.422,WTP_SM_Choice,2022.2.1,MacIntel,126.5822785,,,,,space,2.5261,NAN,,NAN,0.9,5.1,,0,61,61,61,1,62,Sam,Rej,Participant_Images/101/101_Images/101_Image_13.jpeg,did not like,2.071164779,,,,,,,,,,,,,,,,,,,,,,,,,
,,101,2024-05-21_15h20.46.422,WTP_SM_Choice,2022.2.1,MacIntel,126.5822785,,,,,space,7.1754,NAN,,NAN,0.9,5.1,,0,62,62,62,1,63,Sam,Rej,Participant_Images/101/101_Images/101_Image_19.jpeg,did not like,4.456234322,,,,,,,,,,,,,,,,,,,,,,,,,
,,101,2024-05-21_15h20.46.422,WTP_SM_Choice,2022.2.1,MacIntel,126.5822785,,,,,space,0.3434,NAN,,NAN,0.9,5.1,,0,63,63,63,1,64,Sam,Rej,Participant_Images/101/101_Images/101_Image_18.jpeg,did not like,4.438512181,,,,,,,,,,,,,,,,,,,,,,,,,
,,101,2024-05-21_15h20.46.422,WTP_SM_Choice,2022.2.1,MacIntel,126.5822785,,,,,,,,,,,,,,,,,,,,,,,,space,0.9893,space,0.3231,0.01,1,0.7757,0,0,0,0,1,thirteen_1,thirteen_1,0,4,0.01,0.01,green,0,1,1,,,
,,101,2024-05-21_15h20.46.422,WTP_SM_Choice,2022.2.1,MacIntel,126.5822785,,,,,,,,,,,,,,,,,,,,,,,,,,,,0.02,1,2.3997,0,1,1,1,1,thirteen_2,thirteen_2,0,5,0.02,0.01,green,1,0,0,,,
,,101,2024-05-21_15h20.46.422,WTP_SM_Choice,2022.2.1,MacIntel,126.5822785,,,,,,,,,,,,,,,,,,,,,,,,,,,,,,,0,2,2,2,1,thirteen_3,thirteen_3,0,6,0.03,0.01,green,1,0,0,,,
,,101,2024-05-21_15h20.46.422,WTP_SM_Choice,2022.2.1,MacIntel,126.5822785,,,,,,,,,,,,,,,,,,,,,,,,,,,,0.01,2,3.0041,0,3,3,3,1,thirteen_4,thirteen_4,0,1,0.04,0.01,green,1,0,0,,,
