endwelcomescreen_keys.keys,endwelcomescreen_keys.rt,participant,date,expName,psychopyVersion,OS,frameRate,endinstructionscreen_keys.keys,endinstructionscreen_keys.rt,endpartnermatch_keys.keys,endpartnermatch_keys.rt,sharenextphoto_key.keys,sharenextphoto_key.rt,salience_rating,key_resp.keys,stress_level,subtract_bonus,TOTAL_TASK_BONUS,stresslevel_keypress.keys,entiretaskloop.thisRepN,entiretaskloop.thisTrialN,entiretaskloop.thisN,entiretaskloop.thisIndex,entiretaskloop.ran,TrialNumber,Partner,Condition,Photos,Feedback,FeedbackWait,WTP_ins_keys1.keys,WTP_ins_keys1.rt,WTP_ins_keys2.keys,WTP_ins_keys2.rt,decision_price,responses.keys,responses.rt,WTPTaskLoop.thisRepN,WTPTaskLoop.thisTrialN,WTPTaskLoop.thisN,WTPTaskLoop.thisIndex,WTPTaskLoop.ran,left,right,social_left,WTP_ITI,leftmoney,rightmoney,greenText,left_more_than_right,matching_prices,social_worthmore,Resume_keys.keys,Resume_keys.rt,key_resp.rt,end_screen_keys.keys,end_screen_keys.rt
space,0.7137,101,2024-05-21_16h33.36.654,WTP_SM_Choice,2022.2.1,MacIntel,114.9425287,,,,,,,,,,,,,,,,,,,,,,,,,,,,,,,,,,,,,,,,,,,,,,,,,,
,,101,2024-05-21_16h33.36.654,WTP_SM_Choice,2022.2.1,MacIntel,114.9425287,space,0.1126,,,,,,,,,,,,,,,,,,,,,,,,,,,,,,,,,,,,,,,,,,,,,,,,
,,101,2024-05-21_16h33.36.654,WTP_SM_Choice,2022.2.1,MacIntel,114.9425287,,,space,0.4201,space,160.3382,NAN,,NAN,0,6,,0,0,0,0,1,1,Alex,Acc,Participant_Images/101/101_Images/101_Image_24.jpeg,did not like,3.613205605,,,,,,,,,,,,,,,,,,,,,,,,,,,
,,101,2024-05-21_16h33.36.654,WTP_SM_Choice,2022.2.1,MacIntel,114.9425287,,,,,space,4.2488,NAN,,NAN,0,6,,0,1,1,1,1,2,Alex,Acc,Participant_Images/101/101_Images/101_Image_9.jpeg,did not like,4.988446431,,,,,,,,,,,,,,,,,,,,,,,,,,,
,,101,2024-05-21_16h33.36.654,WTP_SM_Choice,2022.2.1,MacIntel,114.9425287,,,,,space,27.5034,NAN,,NAN,0,6,,0,2,2,2,1,3,Alex,Acc,Participant_Images/101/101_Images/101_Image_4.jpeg,liked,3.470791822,,,,,,,,,,,,,,,,,,,,,,,,,,,
,,101,2024-05-21_16h33.36.654,WTP_SM_Choice,2022.2.1,MacIntel,114.9425287,,,,,space,11.1364,NAN,,NAN,0,6,,0,3,3,3,1,4,Alex,Acc,Participant_Images/101/101_Images/101_Image_1.jpeg,liked,3.820572462,,,,,,,,,,,,,,,,,,,,,,,,,,,
,,101,2024-05-21_16h33.36.654,WTP_SM_Choice,2022.2.1,MacIntel,114.9425287,,,,,,,,,,,,,,,,,,,,,,,,space,57.2409,space,0.7251,0.01,1,0.997,0,0,0,0,1,one_1,one_1,0,4,0.01,0.01,green,0,1,1,,,,,
,,101,2024-05-21_16h33.36.654,WTP_SM_Choice,2022.2.1,MacIntel,114.9425287,,,,,,,,,,,,,,,,,,,,,,,,,,,,0.02,1,7.952,0,1,1,1,1,one_2,one_2,0,5,0.02,0.01,green,1,0,0,,,,,
,,101,2024-05-21_16h33.36.654,WTP_SM_Choice,2022.2.1,MacIntel,114.9425287,,,,,,,,,,,,,,,,,,,,,,,,,,,,0.03,1,3.6792,0,2,2,2,1,one_3,one_3,0,6,0.03,0.01,green,1,0,0,,,,,
,,101,2024-05-21_16h33.36.654,WTP_SM_Choice,2022.2.1,MacIntel,114.9425287,,,,,,,,,,,,,,,,,,,,,,,,,,,,,,,0,3,3,3,1,one_4,one_4,0,1,0.04,0.01,green,1,0,0,,,,,
,,101,2024-05-21_16h33.36.654,WTP_SM_Choice,2022.2.1,MacIntel,114.9425287,,,,,,,,,,,,,,,,,,,,,,,,,,,,0.05,1,2.1406,0,4,4,4,1,one_5,one_5,0,2,0.05,0.01,green,1,0,0,,,,,
,,101,2024-05-21_16h33.36.654,WTP_SM_Choice,2022.2.1,MacIntel,114.9425287,,,,,,,NAN,,NAN,0.11,5.89,,0,4,4,4,1,5,Alex,Acc,Participant_Images/101/101_Images/101_Image_3.jpeg,liked,2.455989137,,,,,,,,,,,,,,,,,,,,,,,,,,,
,,101,2024-05-21_16h33.36.654,WTP_SM_Choice,2022.2.1,MacIntel,114.9425287,,,,,space,0.976,NAN,,NAN,0.11,5.89,,0,5,5,5,1,6,Alex,Acc,Participant_Images/101/101_Images/101_Image_13.jpeg,liked,3.79605092,,,,,,,,,,,,,,,,,,,,,,,,,,,
,,101,2024-05-21_16h33.36.654,WTP_SM_Choice,2022.2.1,MacIntel,114.9425287,,,,,space,0.4452,NAN,,NAN,0.11,5.89,,0,6,6,6,1,7,Alex,Acc,Participant_Images/101/101_Images/101_Image_2.jpeg,did not like,3.562416326,,,,,,,,,,,,,,,,,,,,,,,,,,,
,,101,2024-05-21_16h33.36.654,WTP_SM_Choice,2022.2.1,MacIntel,114.9425287,,,,,space,0.9143,NAN,,NAN,0.11,5.89,,0,7,7,7,1,8,Alex,Acc,Participant_Images/101/101_Images/101_Image_25.jpeg,liked,2.843822497,,,,,,,,,,,,,,,,,,,,,,,,,,,
,,101,2024-05-21_16h33.36.654,WTP_SM_Choice,2022.2.1,MacIntel,114.9425287,,,,,space,2.0211,NAN,,NAN,0.11,5.89,,0,8,8,8,1,9,Alex,Acc,Participant_Images/101/101_Images/101_Image_8.jpeg,did not like,3.546495948,,,,,,,,,,,,,,,,,,,,,,,,,,,
,,101,2024-05-21_16h33.36.654,WTP_SM_Choice,2022.2.1,MacIntel,114.9425287,,,,,,,,,,,,,,,,,,,,,,,,space,0.5582,space,0.2357,0.01,1,0.7208,0,0,0,0,1,two_1,two_1,0,5,0.01,0.02,green,0,0,1,,,,,
,,101,2024-05-21_16h33.36.654,WTP_SM_Choice,2022.2.1,MacIntel,114.9425287,,,,,,,,,,,,,,,,,,,,,,,,,,,,0.02,1,0.9126,0,1,1,1,1,two_2,two_2,0,1,0.02,0.02,green,0,1,1,,,,,
,,101,2024-05-21_16h33.36.654,WTP_SM_Choice,2022.2.1,MacIntel,114.9425287,,,,,,,,,,,,,,,,,,,,,,,,,,,,,,,0,2,2,2,1,two_3,two_3,0,2,0.03,0.02,green,1,0,0,,,,,
,,101,2024-05-21_16h33.36.654,WTP_SM_Choice,2022.2.1,MacIntel,114.9425287,,,,,,,,,,,,,,,,,,,,,,,,,,,,0.04,1,4.1885,0,3,3,3,1,two_4,two_4,0,4,0.04,0.02,green,1,0,0,,,,,
,,101,2024-05-21_16h33.36.654,WTP_SM_Choice,2022.2.1,MacIntel,114.9425287,,,,,,,,,,,,,,,,,,,,,,,,,,,,,,,0,4,4,4,1,two_5,two_5,0,3,0.05,0.02,green,1,0,0,,,,,
,,101,2024-05-21_16h33.36.654,WTP_SM_Choice,2022.2.1,MacIntel,114.9425287,,,,,,,NAN,,NAN,0.18,5.82,,0,9,9,9,1,10,Alex,Acc,Participant_Images/101/101_Images/101_Image_7.jpeg,did not like,1.672012706,,,,,,,,,,,,,,,,,,,,,,,,,,,
,,101,2024-05-21_16h33.36.654,WTP_SM_Choice,2022.2.1,MacIntel,114.9425287,,,,,space,5.8401,NAN,,NAN,0.18,5.82,,0,10,10,10,1,11,Alex,Acc,Participant_Images/101/101_Images/101_Image_10.jpeg,liked,2.50187214,,,,,,,,,,,,,,,,,,,,,,,,,,,
,,101,2024-05-21_16h33.36.654,WTP_SM_Choice,2022.2.1,MacIntel,114.9425287,,,,,space,3.8222,NAN,,NAN,0.18,5.82,,0,11,11,11,1,12,Alex,Acc,Participant_Images/101/101_Images/101_Image_20.jpeg,liked,2.071164779,,,,,,,,,,,,,,,,,,,,,,,,,,,
,,101,2024-05-21_16h33.36.654,WTP_SM_Choice,2022.2.1,MacIntel,114.9425287,,,,,space,2.3361,NAN,,NAN,0.18,5.82,,0,12,12,12,1,13,Alex,Acc,Participant_Images/101/101_Images/101_Image_14.jpeg,liked,5.336503566,,,,,,,,,,,,,,,,,,,,,,,,,,,
,,101,2024-05-21_16h33.36.654,WTP_SM_Choice,2022.2.1,MacIntel,114.9425287,,,,,space,3.5272,NAN,,NAN,0.18,5.82,,0,13,13,13,1,14,Alex,Acc,Participant_Images/101/101_Images/101_Image_21.jpeg,liked,2.642157193,,,,,,,,,,,,,,,,,,,,,,,,,,,
,,101,2024-05-21_16h33.36.654,WTP_SM_Choice,2022.2.1,MacIntel,114.9425287,,,,,,,,,,,,,,,,,,,,,,,,space,0.8296,space,0.3348,0.01,1,0.8361,0,0,0,0,1,three_1,three_1,0,4,0.01,0.01,green,0,1,1,,,,,
,,101,2024-05-21_16h33.36.654,WTP_SM_Choice,2022.2.1,MacIntel,114.9425287,,,,,,,,,,,,,,,,,,,,,,,,,,,,0.01,2,6.833,0,1,1,1,1,three_2,three_2,0,5,0.02,0.01,green,1,0,0,,,,,
,,101,2024-05-21_16h33.36.654,WTP_SM_Choice,2022.2.1,MacIntel,114.9425287,,,,,,,,,,,,,,,,,,,,,,,,,,,,0.03,1,0.3583,0,2,2,2,1,three_3,three_3,0,6,0.03,0.01,green,1,0,0,,,,,
,,101,2024-05-21_16h33.36.654,WTP_SM_Choice,2022.2.1,MacIntel,114.9425287,,,,,,,,,,,,,,,,,,,,,,,,,,,,0.04,1,1.7322,0,3,3,3,1,three_4,three_4,0,1,0.04,0.01,green,1,0,0,,,,,
,,101,2024-05-21_16h33.36.654,WTP_SM_Choice,2022.2.1,MacIntel,114.9425287,,,,,,,,,,,,,,,,,,,,,,,,,,,,0.05,1,1.5093,0,4,4,4,1,three_5,three_5,0,2,0.05,0.01,green,1,0,0,,,,,
,,101,2024-05-21_16h33.36.654,WTP_SM_Choice,2022.2.1,MacIntel,114.9425287,,,,,,,NAN,,NAN,0.32,5.68,,0,14,14,14,1,15,Alex,Acc,Participant_Images/101/101_Images/101_Image_5.jpeg,did not like,4.456234322,,,,,,,,,,,,,,,,,,,,,,,,,,,
,,101,2024-05-21_16h33.36.654,WTP_SM_Choice,2022.2.1,MacIntel,114.9425287,,,,,space,109.9731,NAN,,NAN,0.32,5.68,,0,15,15,15,1,16,Alex,Acc,Participant_Images/101/101_Images/101_Image_17.jpeg,did not like,4.438512181,,,,,,,,,,,,,,,,,,,,,,,,,,,
,,101,2024-05-21_16h33.36.654,WTP_SM_Choice,2022.2.1,MacIntel,114.9425287,,,,,space,0.3894,NAN,,NAN,0.32,5.68,,0,16,16,16,1,17,Alex,Acc,Participant_Images/101/101_Images/101_Image_23.jpeg,did not like,1.779333479,,,,,,,,,,,,,,,,,,,,,,,,,,,
,,101,2024-05-21_16h33.36.654,WTP_SM_Choice,2022.2.1,MacIntel,114.9425287,,,,,space,2.861,NAN,,NAN,0.32,5.68,,0,17,17,17,1,18,Alex,Acc,Participant_Images/101/101_Images/101_Image_16.jpeg,did not like,4.312468682,,,,,,,,,,,,,,,,,,,,,,,,,,,
,,101,2024-05-21_16h33.36.654,WTP_SM_Choice,2022.2.1,MacIntel,114.9425287,,,,,space,10.3347,NAN,,NAN,0.32,5.68,,0,18,18,18,1,19,Alex,Acc,Participant_Images/101/101_Images/101_Image_22.jpeg,did not like,2.7105123,,,,,,,,,,,,,,,,,,,,,,,,,,,
,,101,2024-05-21_16h33.36.654,WTP_SM_Choice,2022.2.1,MacIntel,114.9425287,,,,,,,,,,,,,,,,,,,,,,,,space,4.4965,space,0.1878,,,,0,0,0,0,1,four_1,four_1,0,5,0.01,0.02,green,0,0,1,,,,,
,,101,2024-05-21_16h33.36.654,WTP_SM_Choice,2022.2.1,MacIntel,114.9425287,,,,,,,,,,,,,,,,,,,,,,,,,,,,,,,0,1,1,1,1,four_2,four_2,0,1,0.02,0.02,green,0,1,1,,,,,
,,101,2024-05-21_16h33.36.654,WTP_SM_Choice,2022.2.1,MacIntel,114.9425287,,,,,,,,,,,,,,,,,,,,,,,,,,,,,,,0,2,2,2,1,four_3,four_3,0,2,0.03,0.02,green,1,0,0,,,,,
,,101,2024-05-21_16h33.36.654,WTP_SM_Choice,2022.2.1,MacIntel,114.9425287,,,,,,,,,,,,,,,,,,,,,,,,,,,,,,,0,3,3,3,1,four_4,four_4,0,4,0.04,0.02,green,1,0,0,,,,,
,,101,2024-05-21_16h33.36.654,WTP_SM_Choice,2022.2.1,MacIntel,114.9425287,,,,,,,,,,,,,,,,,,,,,,,,,,,,,,,0,4,4,4,1,four_5,four_5,0,3,0.05,0.02,green,1,0,0,,,,,
,,101,2024-05-21_16h33.36.654,WTP_SM_Choice,2022.2.1,MacIntel,114.9425287,,,,,,,NAN,,NAN,0.32,5.68,,0,19,19,19,1,20,Alex,Acc,Participant_Images/101/101_Images/101_Image_12.jpeg,did not like,3.602308302,,,,,,,,,,,,,,,,,,,,,,,,,,,
,,101,2024-05-21_16h33.36.654,WTP_SM_Choice,2022.2.1,MacIntel,114.9425287,,,,,space,5.3124,NAN,,NAN,0.32,5.68,,0,20,20,20,1,21,Alex,Acc,Participant_Images/101/101_Images/101_Image_15.jpeg,liked,4.106391878,,,,,,,,,,,,,,,,,,,,,,,,,,,
,,101,2024-05-21_16h33.36.654,WTP_SM_Choice,2022.2.1,MacIntel,114.9425287,,,,,space,3.8617,NAN,,NAN,0.32,5.68,,0,21,21,21,1,22,Alex,Acc,Participant_Images/101/101_Images/101_Image_19.jpeg,liked,3.799433026,,,,,,,,,,,,,,,,,,,,,,,,,,,
,,101,2024-05-21_16h33.36.654,WTP_SM_Choice,2022.2.1,MacIntel,114.9425287,,,,,space,11.2585,NAN,,NAN,0.32,5.68,,0,22,22,22,1,23,Alex,Acc,Participant_Images/101/101_Images/101_Image_18.jpeg,liked,5.246980764,,,,,,,,,,,,,,,,,,,,,,,,,,,
,,101,2024-05-21_16h33.36.654,WTP_SM_Choice,2022.2.1,MacIntel,114.9425287,,,,,space,9.8729,NAN,,NAN,0.32,5.68,,0,23,23,23,1,24,Alex,Acc,Participant_Images/101/101_Images/101_Image_6.jpeg,liked,3.30081769,,,,,,,,,,,,,,,,,,,,,,,,,,,
,,101,2024-05-21_16h33.36.654,WTP_SM_Choice,2022.2.1,MacIntel,114.9425287,,,,,,,,,,,,,,,,,,,,,,,,space,5.538,space,0.4537,,,,0,0,0,0,1,five_1,five_1,0,4,0.01,0.01,green,0,1,1,,,,,
,,101,2024-05-21_16h33.36.654,WTP_SM_Choice,2022.2.1,MacIntel,114.9425287,,,,,,,,,,,,,,,,,,,,,,,,,,,,,,,0,1,1,1,1,five_2,five_2,0,5,0.02,0.01,green,1,0,0,,,,,
,,101,2024-05-21_16h33.36.654,WTP_SM_Choice,2022.2.1,MacIntel,114.9425287,,,,,,,,,,,,,,,,,,,,,,,,,,,,,,,0,2,2,2,1,five_3,five_3,0,6,0.03,0.01,green,1,0,0,,,,,
,,101,2024-05-21_16h33.36.654,WTP_SM_Choice,2022.2.1,MacIntel,114.9425287,,,,,,,,,,,,,,,,,,,,,,,,,,,,,,,0,3,3,3,1,five_4,five_4,0,1,0.04,0.01,green,1,0,0,,,,,
,,101,2024-05-21_16h33.36.654,WTP_SM_Choice,2022.2.1,MacIntel,114.9425287,,,,,,,,,,,,,,,,,,,,,,,,,,,,,,,0,4,4,4,1,five_5,five_5,0,2,0.05,0.01,green,1,0,0,,,,,
,,101,2024-05-21_16h33.36.654,WTP_SM_Choice,2022.2.1,MacIntel,114.9425287,,,,,,,3,space,5,0.32,5.68,,0,24,24,24,1,25,Alex,Acc,Participant_Images/101/101_Images/101_Image_11.jpeg,did not like,1.661473164,,,,,,,,,,,,,,,,,,,,,,,space,149.7467,2.2814,,
,,101,2024-05-21_16h33.36.654,WTP_SM_Choice,2022.2.1,MacIntel,114.9425287,,,space,3.6798,space,1.721,NAN,,NAN,0.32,5.68,,0,25,25,25,1,26,Riley,Acc,Participant_Images/101/101_Images/101_Image_20.jpeg,liked,3.613205605,,,,,,,,,,,,,,,,,,,,,,,,,,,
,,101,2024-05-21_16h33.36.654,WTP_SM_Choice,2022.2.1,MacIntel,114.9425287,,,,,space,19.6447,NAN,,NAN,0.32,5.68,,0,26,26,26,1,27,Riley,Acc,Participant_Images/101/101_Images/101_Image_22.jpeg,liked,3.470791822,,,,,,,,,,,,,,,,,,,,,,,,,,,
,,101,2024-05-21_16h33.36.654,WTP_SM_Choice,2022.2.1,MacIntel,114.9425287,,,,,space,10.1026,NAN,,NAN,0.32,5.68,,0,27,27,27,1,28,Riley,Acc,Participant_Images/101/101_Images/101_Image_25.jpeg,did not like,2.455989137,,,,,,,,,,,,,,,,,,,,,,,,,,,
,,101,2024-05-21_16h33.36.654,WTP_SM_Choice,2022.2.1,MacIntel,114.9425287,,,,,space,123.5393,NAN,,NAN,0.32,5.68,,0,28,28,28,1,29,Riley,Acc,Participant_Images/101/101_Images/101_Image_12.jpeg,liked,3.79605092,,,,,,,,,,,,,,,,,,,,,,,,,,,
,,101,2024-05-21_16h33.36.654,WTP_SM_Choice,2022.2.1,MacIntel,114.9425287,,,,,,,,,,,,,,,,,,,,,,,,space,1.1911,space,0.2657,,,,0,0,0,0,1,six_1,six_1,0,5,0.01,0.02,green,0,0,1,,,,,
,,101,2024-05-21_16h33.36.654,WTP_SM_Choice,2022.2.1,MacIntel,114.9425287,,,,,,,,,,,,,,,,,,,,,,,,,,,,,,,0,1,1,1,1,six_2,six_2,0,1,0.02,0.02,green,0,1,1,,,,,
,,101,2024-05-21_16h33.36.654,WTP_SM_Choice,2022.2.1,MacIntel,114.9425287,,,,,,,,,,,,,,,,,,,,,,,,,,,,,,,0,2,2,2,1,six_3,six_3,0,2,0.03,0.02,green,1,0,0,,,,,
,,101,2024-05-21_16h33.36.654,WTP_SM_Choice,2022.2.1,MacIntel,114.9425287,,,,,,,,,,,,,,,,,,,,,,,,,,,,0.02,2,1.7581,0,3,3,3,1,six_4,six_4,0,4,0.04,0.02,green,1,0,0,,,,,
,,101,2024-05-21_16h33.36.654,WTP_SM_Choice,2022.2.1,MacIntel,114.9425287,,,,,,,,,,,,,,,,,,,,,,,,,,,,0.05,1,0.8793,0,4,4,4,1,six_5,six_5,0,3,0.05,0.02,green,1,0,0,,,,,
,,101,2024-05-21_16h33.36.654,WTP_SM_Choice,2022.2.1,MacIntel,114.9425287,,,,,,,NAN,,NAN,0.39,5.61,,0,29,29,29,1,30,Riley,Acc,Participant_Images/101/101_Images/101_Image_9.jpeg,did not like,3.562416326,,,,,,,,,,,,,,,,,,,,,,,,,,,
,,101,2024-05-21_16h33.36.654,WTP_SM_Choice,2022.2.1,MacIntel,114.9425287,,,,,space,0.5298,NAN,,NAN,0.39,5.61,,0,30,30,30,1,31,Riley,Acc,Participant_Images/101/101_Images/101_Image_5.jpeg,liked,2.843822497,,,,,,,,,,,,,,,,,,,,,,,,,,,
,,101,2024-05-21_16h33.36.654,WTP_SM_Choice,2022.2.1,MacIntel,114.9425287,,,,,space,0.4421,NAN,,NAN,0.39,5.61,,0,31,31,31,1,32,Riley,Acc,Participant_Images/101/101_Images/101_Image_14.jpeg,liked,3.546495948,,,,,,,,,,,,,,,,,,,,,,,,,,,
,,101,2024-05-21_16h33.36.654,WTP_SM_Choice,2022.2.1,MacIntel,114.9425287,,,,,space,0.4551,NAN,,NAN,0.39,5.61,,0,32,32,32,1,33,Riley,Acc,Participant_Images/101/101_Images/101_Image_18.jpeg,did not like,1.672012706,,,,,,,,,,,,,,,,,,,,,,,,,,,
,,101,2024-05-21_16h33.36.654,WTP_SM_Choice,2022.2.1,MacIntel,114.9425287,,,,,space,0.7051,NAN,,NAN,0.39,5.61,,0,33,33,33,1,34,Riley,Acc,Participant_Images/101/101_Images/101_Image_10.jpeg,liked,4.942172136,,,,,,,,,,,,,,,,,,,,,,,,,,,
,,101,2024-05-21_16h33.36.654,WTP_SM_Choice,2022.2.1,MacIntel,114.9425287,,,,,,,,,,,,,,,,,,,,,,,,space,0.4596,space,0.2585,0.01,1,0.8262,0,0,0,0,1,seven_1,seven_1,0,4,0.01,0.01,green,0,1,1,,,,,
,,101,2024-05-21_16h33.36.654,WTP_SM_Choice,2022.2.1,MacIntel,114.9425287,,,,,,,,,,,,,,,,,,,,,,,,,,,,0.01,2,6.3745,0,1,1,1,1,seven_2,seven_2,0,5,0.02,0.01,green,1,0,0,,,,,
,,101,2024-05-21_16h33.36.654,WTP_SM_Choice,2022.2.1,MacIntel,114.9425287,,,,,,,,,,,,,,,,,,,,,,,,,,,,0.01,2,3.6351,0,2,2,2,1,seven_3,seven_3,0,6,0.03,0.01,green,1,0,0,,,,,
,,101,2024-05-21_16h33.36.654,WTP_SM_Choice,2022.2.1,MacIntel,114.9425287,,,,,,,,,,,,,,,,,,,,,,,,,,,,0.01,2,1.0214,0,3,3,3,1,seven_4,seven_4,0,1,0.04,0.01,green,1,0,0,,,,,
,,101,2024-05-21_16h33.36.654,WTP_SM_Choice,2022.2.1,MacIntel,114.9425287,,,,,,,,,,,,,,,,,,,,,,,,,,,,,,,0,4,4,4,1,seven_5,seven_5,0,2,0.05,0.01,green,1,0,0,,,,,
,,101,2024-05-21_16h33.36.654,WTP_SM_Choice,2022.2.1,MacIntel,114.9425287,,,,,,,NAN,,NAN,0.43,5.57,,0,34,34,34,1,35,Riley,Acc,Participant_Images/101/101_Images/101_Image_16.jpeg,liked,2.50187214,,,,,,,,,,,,,,,,,,,,,,,,,,,
,,101,2024-05-21_16h33.36.654,WTP_SM_Choice,2022.2.1,MacIntel,114.9425287,,,,,space,1.1132,NAN,,NAN,0.43,5.57,,0,35,35,35,1,36,Riley,Acc,Participant_Images/101/101_Images/101_Image_23.jpeg,liked,2.642157193,,,,,,,,,,,,,,,,,,,,,,,,,,,
,,101,2024-05-21_16h33.36.654,WTP_SM_Choice,2022.2.1,MacIntel,114.9425287,,,,,space,3.7245,NAN,,NAN,0.43,5.57,,0,36,36,36,1,37,Riley,Acc,Participant_Images/101/101_Images/101_Image_4.jpeg,liked,4.456234322,,,,,,,,,,,,,,,,,,,,,,,,,,,
,,101,2024-05-21_16h33.36.654,WTP_SM_Choice,2022.2.1,MacIntel,114.9425287,,,,,space,37.114,NAN,,NAN,0.43,5.57,,0,37,37,37,1,38,Riley,Acc,Participant_Images/101/101_Images/101_Image_24.jpeg,liked,4.438512181,,,,,,,,,,,,,,,,,,,,,,,,,,,
,,101,2024-05-21_16h33.36.654,WTP_SM_Choice,2022.2.1,MacIntel,114.9425287,,,,,space,0.7774,NAN,,NAN,0.43,5.57,,0,38,38,38,1,39,Riley,Acc,Participant_Images/101/101_Images/101_Image_15.jpeg,liked,2.682944783,,,,,,,,,,,,,,,,,,,,,,,,,,,
,,101,2024-05-21_16h33.36.654,WTP_SM_Choice,2022.2.1,MacIntel,114.9425287,,,,,,,,,,,,,,,,,,,,,,,,space,1.7698,space,0.3524,,,,0,0,0,0,1,eight_1,eight_1,0,5,0.01,0.02,green,0,0,1,,,,,
,,101,2024-05-21_16h33.36.654,WTP_SM_Choice,2022.2.1,MacIntel,114.9425287,,,,,,,,,,,,,,,,,,,,,,,,,,,,0.02,1,7.6294,0,1,1,1,1,eight_2,eight_2,0,1,0.02,0.02,green,0,1,1,,,,,
,,101,2024-05-21_16h33.36.654,WTP_SM_Choice,2022.2.1,MacIntel,114.9425287,,,,,,,,,,,,,,,,,,,,,,,,,,,,0.03,1,9.4387,0,2,2,2,1,eight_3,eight_3,0,2,0.03,0.02,green,1,0,0,,,,,
,,101,2024-05-21_16h33.36.654,WTP_SM_Choice,2022.2.1,MacIntel,114.9425287,,,,,,,,,,,,,,,,,,,,,,,,,,,,0.04,1,1.0859,0,3,3,3,1,eight_4,eight_4,0,4,0.04,0.02,green,1,0,0,,,,,
,,101,2024-05-21_16h33.36.654,WTP_SM_Choice,2022.2.1,MacIntel,114.9425287,,,,,,,,,,,,,,,,,,,,,,,,,,,,0.05,1,0.7396,0,4,4,4,1,eight_5,eight_5,0,3,0.05,0.02,green,1,0,0,,,,,
,,101,2024-05-21_16h33.36.654,WTP_SM_Choice,2022.2.1,MacIntel,114.9425287,,,,,,,NAN,,NAN,0.57,5.43,,0,39,39,39,1,40,Riley,Acc,Participant_Images/101/101_Images/101_Image_6.jpeg,liked,4.51984296,,,,,,,,,,,,,,,,,,,,,,,,,,,
,,101,2024-05-21_16h33.36.654,WTP_SM_Choice,2022.2.1,MacIntel,114.9425287,,,,,space,5.6584,NAN,,NAN,0.57,5.43,,0,40,40,40,1,41,Riley,Acc,Participant_Images/101/101_Images/101_Image_19.jpeg,liked,3.195382774,,,,,,,,,,,,,,,,,,,,,,,,,,,
,,101,2024-05-21_16h33.36.654,WTP_SM_Choice,2022.2.1,MacIntel,114.9425287,,,,,space,9.292,NAN,,NAN,0.57,5.43,,0,41,41,41,1,42,Riley,Acc,Participant_Images/101/101_Images/101_Image_3.jpeg,did not like,1.779333479,,,,,,,,,,,,,,,,,,,,,,,,,,,
,,101,2024-05-21_16h33.36.654,WTP_SM_Choice,2022.2.1,MacIntel,114.9425287,,,,,space,43.6694,NAN,,NAN,0.57,5.43,,0,42,42,42,1,43,Riley,Acc,Participant_Images/101/101_Images/101_Image_7.jpeg,liked,4.312468682,,,,,,,,,,,,,,,,,,,,,,,,,,,
,,101,2024-05-21_16h33.36.654,WTP_SM_Choice,2022.2.1,MacIntel,114.9425287,,,,,space,1.078,NAN,,NAN,0.57,5.43,,0,43,43,43,1,44,Riley,Acc,Participant_Images/101/101_Images/101_Image_8.jpeg,did not like,4.940433059,,,,,,,,,,,,,,,,,,,,,,,,,,,
,,101,2024-05-21_16h33.36.654,WTP_SM_Choice,2022.2.1,MacIntel,114.9425287,,,,,,,,,,,,,,,,,,,,,,,,space,0.8925,space,0.282,0.01,2,0.7492,0,0,0,0,1,nine_1,nine_1,0,4,0.01,0.01,green,0,1,1,,,,,
,,101,2024-05-21_16h33.36.654,WTP_SM_Choice,2022.2.1,MacIntel,114.9425287,,,,,,,,,,,,,,,,,,,,,,,,,,,,0.02,1,2.7578,0,1,1,1,1,nine_2,nine_2,0,5,0.02,0.01,green,1,0,0,,,,,
,,101,2024-05-21_16h33.36.654,WTP_SM_Choice,2022.2.1,MacIntel,114.9425287,,,,,,,,,,,,,,,,,,,,,,,,,,,,0.03,1,2.088,0,2,2,2,1,nine_3,nine_3,0,6,0.03,0.01,green,1,0,0,,,,,
,,101,2024-05-21_16h33.36.654,WTP_SM_Choice,2022.2.1,MacIntel,114.9425287,,,,,,,,,,,,,,,,,,,,,,,,,,,,,,,0,3,3,3,1,nine_4,nine_4,0,1,0.04,0.01,green,1,0,0,,,,,
,,101,2024-05-21_16h33.36.654,WTP_SM_Choice,2022.2.1,MacIntel,114.9425287,,,,,,,,,,,,,,,,,,,,,,,,,,,,0.05,1,1.1418,0,4,4,4,1,nine_5,nine_5,0,2,0.05,0.01,green,1,0,0,,,,,
,,101,2024-05-21_16h33.36.654,WTP_SM_Choice,2022.2.1,MacIntel,114.9425287,,,,,,,NAN,,NAN,0.68,5.32,,0,44,44,44,1,45,Riley,Acc,Participant_Images/101/101_Images/101_Image_21.jpeg,liked,2.7105123,,,,,,,,,,,,,,,,,,,,,,,,,,,
,,101,2024-05-21_16h33.36.654,WTP_SM_Choice,2022.2.1,MacIntel,114.9425287,,,,,space,18.9103,NAN,,NAN,0.68,5.32,,0,45,45,45,1,46,Riley,Acc,Participant_Images/101/101_Images/101_Image_1.jpeg,liked,3.602308302,,,,,,,,,,,,,,,,,,,,,,,,,,,
,,101,2024-05-21_16h33.36.654,WTP_SM_Choice,2022.2.1,MacIntel,114.9425287,,,,,space,36.0045,NAN,,NAN,0.68,5.32,,0,46,46,46,1,47,Riley,Acc,Participant_Images/101/101_Images/101_Image_11.jpeg,liked,4.106391878,,,,,,,,,,,,,,,,,,,,,,,,,,,
,,101,2024-05-21_16h33.36.654,WTP_SM_Choice,2022.2.1,MacIntel,114.9425287,,,,,space,1.4168,NAN,,NAN,0.68,5.32,,0,47,47,47,1,48,Riley,Acc,Participant_Images/101/101_Images/101_Image_2.jpeg,liked,5.246980764,,,,,,,,,,,,,,,,,,,,,,,,,,,
,,101,2024-05-21_16h33.36.654,WTP_SM_Choice,2022.2.1,MacIntel,114.9425287,,,,,space,16.1654,NAN,,NAN,0.68,5.32,,0,48,48,48,1,49,Riley,Acc,Participant_Images/101/101_Images/101_Image_13.jpeg,liked,3.30081769,,,,,,,,,,,,,,,,,,,,,,,,,,,
,,101,2024-05-21_16h33.36.654,WTP_SM_Choice,2022.2.1,MacIntel,114.9425287,,,,,,,,,,,,,,,,,,,,,,,,space,2.0862,space,0.1767,0.01,1,2.4262,0,0,0,0,1,ten_1,ten_1,0,5,0.01,0.02,green,0,0,1,,,,,
,,101,2024-05-21_16h33.36.654,WTP_SM_Choice,2022.2.1,MacIntel,114.9425287,,,,,,,,,,,,,,,,,,,,,,,,,,,,,,,0,1,1,1,1,ten_2,ten_2,0,1,0.02,0.02,green,0,1,1,,,,,
,,101,2024-05-21_16h33.36.654,WTP_SM_Choice,2022.2.1,MacIntel,114.9425287,,,,,,,,,,,,,,,,,,,,,,,,,,,,,,,0,2,2,2,1,ten_3,ten_3,0,2,0.03,0.02,green,1,0,0,,,,,
,,101,2024-05-21_16h33.36.654,WTP_SM_Choice,2022.2.1,MacIntel,114.9425287,,,,,,,,,,,,,,,,,,,,,,,,,,,,,,,0,3,3,3,1,ten_4,ten_4,0,4,0.04,0.02,green,1,0,0,,,,,
,,101,2024-05-21_16h33.36.654,WTP_SM_Choice,2022.2.1,MacIntel,114.9425287,,,,,,,,,,,,,,,,,,,,,,,,,,,,0.05,1,4.5576,0,4,4,4,1,ten_5,ten_5,0,3,0.05,0.02,green,1,0,0,,,,,
,,101,2024-05-21_16h33.36.654,WTP_SM_Choice,2022.2.1,MacIntel,114.9425287,,,,,,,3,,5,0.74,5.26,,0,49,49,49,1,50,Riley,Acc,Participant_Images/101/101_Images/101_Image_17.jpeg,liked,1.661473164,,,,,,,,,,,,,,,,,,,,,,,space,22.0261,,,
,,101,2024-05-21_16h33.36.654,WTP_SM_Choice,2022.2.1,MacIntel,114.9425287,,,space,116.5292,space,62.3333,NAN,,NAN,0.74,5.26,,0,50,50,50,1,51,Sam,Rej,Participant_Images/101/101_Images/101_Image_4.jpeg,liked,3.613205605,,,,,,,,,,,,,,,,,,,,,,,,,,,
,,101,2024-05-21_16h33.36.654,WTP_SM_Choice,2022.2.1,MacIntel,114.9425287,,,,,space,0.6549,NAN,,NAN,0.74,5.26,,0,51,51,51,1,52,Sam,Rej,Participant_Images/101/101_Images/101_Image_21.jpeg,did not like,4.988446431,,,,,,,,,,,,,,,,,,,,,,,,,,,
,,101,2024-05-21_16h33.36.654,WTP_SM_Choice,2022.2.1,MacIntel,114.9425287,,,,,space,0.411,NAN,,NAN,0.74,5.26,,0,52,52,52,1,53,Sam,Rej,Participant_Images/101/101_Images/101_Image_16.jpeg,did not like,3.470791822,,,,,,,,,,,,,,,,,,,,,,,,,,,
,,101,2024-05-21_16h33.36.654,WTP_SM_Choice,2022.2.1,MacIntel,114.9425287,,,,,space,90.116,NAN,,NAN,0.74,5.26,,0,53,53,53,1,54,Sam,Rej,Participant_Images/101/101_Images/101_Image_8.jpeg,liked,3.820572462,,,,,,,,,,,,,,,,,,,,,,,,,,,
,,101,2024-05-21_16h33.36.654,WTP_SM_Choice,2022.2.1,MacIntel,114.9425287,,,,,,,,,,,,,,,,,,,,,,,,space,7724.3315,space,0.3004,0.01,1,0.96,0,0,0,0,1,eleven_1,eleven_1,0,4,0.01,0.01,green,0,1,1,,,,,
,,101,2024-05-21_16h33.36.654,WTP_SM_Choice,2022.2.1,MacIntel,114.9425287,,,,,,,,,,,,,,,,,,,,,,,,,,,,0.02,1,2.8781,0,1,1,1,1,eleven_2,eleven_2,0,5,0.02,0.01,green,1,0,0,,,,,
,,101,2024-05-21_16h33.36.654,WTP_SM_Choice,2022.2.1,MacIntel,114.9425287,,,,,,,,,,,,,,,,,,,,,,,,,,,,0.03,1,1.2653,0,2,2,2,1,eleven_3,eleven_3,0,6,0.03,0.01,green,1,0,0,,,,,
,,101,2024-05-21_16h33.36.654,WTP_SM_Choice,2022.2.1,MacIntel,114.9425287,,,,,,,,,,,,,,,,,,,,,,,,,,,,0.04,1,1.4467,0,3,3,3,1,eleven_4,eleven_4,0,1,0.04,0.01,green,1,0,0,,,,,
,,101,2024-05-21_16h33.36.654,WTP_SM_Choice,2022.2.1,MacIntel,114.9425287,,,,,,,,,,,,,,,,,,,,,,,,,,,,,,,0,4,4,4,1,eleven_5,eleven_5,0,2,0.05,0.01,green,1,0,0,,,,,
,,101,2024-05-21_16h33.36.654,WTP_SM_Choice,2022.2.1,MacIntel,114.9425287,,,,,,,NAN,,NAN,0.84,5.16,,0,54,54,54,1,55,Sam,Rej,Participant_Images/101/101_Images/101_Image_15.jpeg,liked,2.455989137,,,,,,,,,,,,,,,,,,,,,,,,,,,
,,101,2024-05-21_16h33.36.654,WTP_SM_Choice,2022.2.1,MacIntel,114.9425287,,,,,space,4.7919,NAN,,NAN,0.84,5.16,,0,55,55,55,1,56,Sam,Rej,Participant_Images/101/101_Images/101_Image_20.jpeg,did not like,3.79605092,,,,,,,,,,,,,,,,,,,,,,,,,,,
,,101,2024-05-21_16h33.36.654,WTP_SM_Choice,2022.2.1,MacIntel,114.9425287,,,,,space,149.5279,NAN,,NAN,0.84,5.16,,0,56,56,56,1,57,Sam,Rej,Participant_Images/101/101_Images/101_Image_17.jpeg,did not like,3.562416326,,,,,,,,,,,,,,,,,,,,,,,,,,,
,,101,2024-05-21_16h33.36.654,WTP_SM_Choice,2022.2.1,MacIntel,114.9425287,,,,,space,0.6798,NAN,,NAN,0.84,5.16,,0,57,57,57,1,58,Sam,Rej,Participant_Images/101/101_Images/101_Image_22.jpeg,did not like,3.546495948,,,,,,,,,,,,,,,,,,,,,,,,,,,
,,101,2024-05-21_16h33.36.654,WTP_SM_Choice,2022.2.1,MacIntel,114.9425287,,,,,space,0.6761,NAN,,NAN,0.84,5.16,,0,58,58,58,1,59,Sam,Rej,Participant_Images/101/101_Images/101_Image_7.jpeg,did not like,1.672012706,,,,,,,,,,,,,,,,,,,,,,,,,,,
,,101,2024-05-21_16h33.36.654,WTP_SM_Choice,2022.2.1,MacIntel,114.9425287,,,,,,,,,,,,,,,,,,,,,,,,space,0.9783,space,0.2126,0.01,1,0.7593,0,0,0,0,1,twelve_1,twelve_1,0,5,0.01,0.02,green,0,0,1,,,,,
,,101,2024-05-21_16h33.36.654,WTP_SM_Choice,2022.2.1,MacIntel,114.9425287,,,,,,,,,,,,,,,,,,,,,,,,,,,,0.02,1,1.3778,0,1,1,1,1,twelve_2,twelve_2,0,1,0.02,0.02,green,0,1,1,,,,,
,,101,2024-05-21_16h33.36.654,WTP_SM_Choice,2022.2.1,MacIntel,114.9425287,,,,,,,,,,,,,,,,,,,,,,,,,,,,0.03,1,2.8045,0,2,2,2,1,twelve_3,twelve_3,0,2,0.03,0.02,green,1,0,0,,,,,
,,101,2024-05-21_16h33.36.654,WTP_SM_Choice,2022.2.1,MacIntel,114.9425287,,,,,,,,,,,,,,,,,,,,,,,,,,,,0.04,1,2.3144,0,3,3,3,1,twelve_4,twelve_4,0,4,0.04,0.02,green,1,0,0,,,,,
,,101,2024-05-21_16h33.36.654,WTP_SM_Choice,2022.2.1,MacIntel,114.9425287,,,,,,,,,,,,,,,,,,,,,,,,,,,,0.05,1,0.9805,0,4,4,4,1,twelve_5,twelve_5,0,3,0.05,0.02,green,1,0,0,,,,,
,,101,2024-05-21_16h33.36.654,WTP_SM_Choice,2022.2.1,MacIntel,114.9425287,,,,,,,NAN,,NAN,0.99,5.01,,0,59,59,59,1,60,Sam,Rej,Participant_Images/101/101_Images/101_Image_25.jpeg,liked,4.942172136,,,,,,,,,,,,,,,,,,,,,,,,,,,
,,101,2024-05-21_16h33.36.654,WTP_SM_Choice,2022.2.1,MacIntel,114.9425287,,,,,space,1.2056,NAN,,NAN,0.99,5.01,,0,60,60,60,1,61,Sam,Rej,Participant_Images/101/101_Images/101_Image_3.jpeg,did not like,2.50187214,,,,,,,,,,,,,,,,,,,,,,,,,,,
,,101,2024-05-21_16h33.36.654,WTP_SM_Choice,2022.2.1,MacIntel,114.9425287,,,,,space,0.7681,NAN,,NAN,0.99,5.01,,0,61,61,61,1,62,Sam,Rej,Participant_Images/101/101_Images/101_Image_13.jpeg,did not like,2.071164779,,,,,,,,,,,,,,,,,,,,,,,,,,,
,,101,2024-05-21_16h33.36.654,WTP_SM_Choice,2022.2.1,MacIntel,114.9425287,,,,,space,1.8927,NAN,,NAN,0.99,5.01,,0,62,62,62,1,63,Sam,Rej,Participant_Images/101/101_Images/101_Image_19.jpeg,did not like,4.456234322,,,,,,,,,,,,,,,,,,,,,,,,,,,
,,101,2024-05-21_16h33.36.654,WTP_SM_Choice,2022.2.1,MacIntel,114.9425287,,,,,space,0.8405,NAN,,NAN,0.99,5.01,,0,63,63,63,1,64,Sam,Rej,Participant_Images/101/101_Images/101_Image_18.jpeg,did not like,4.438512181,,,,,,,,,,,,,,,,,,,,,,,,,,,
,,101,2024-05-21_16h33.36.654,WTP_SM_Choice,2022.2.1,MacIntel,114.9425287,,,,,,,,,,,,,,,,,,,,,,,,space,0.7926,space,0.1582,0.01,1,0.7176,0,0,0,0,1,thirteen_1,thirteen_1,0,4,0.01,0.01,green,0,1,1,,,,,
,,101,2024-05-21_16h33.36.654,WTP_SM_Choice,2022.2.1,MacIntel,114.9425287,,,,,,,,,,,,,,,,,,,,,,,,,,,,0.02,1,2.4492,0,1,1,1,1,thirteen_2,thirteen_2,0,5,0.02,0.01,green,1,0,0,,,,,
,,101,2024-05-21_16h33.36.654,WTP_SM_Choice,2022.2.1,MacIntel,114.9425287,,,,,,,,,,,,,,,,,,,,,,,,,,,,0.03,1,1.0746,0,2,2,2,1,thirteen_3,thirteen_3,0,6,0.03,0.01,green,1,0,0,,,,,
,,101,2024-05-21_16h33.36.654,WTP_SM_Choice,2022.2.1,MacIntel,114.9425287,,,,,,,,,,,,,,,,,,,,,,,,,,,,0.04,1,2.0581,0,3,3,3,1,thirteen_4,thirteen_4,0,1,0.04,0.01,green,1,0,0,,,,,
,,101,2024-05-21_16h33.36.654,WTP_SM_Choice,2022.2.1,MacIntel,114.9425287,,,,,,,,,,,,,,,,,,,,,,,,,,,,,,,0,4,4,4,1,thirteen_5,thirteen_5,0,2,0.05,0.01,green,1,0,0,,,,,
,,101,2024-05-21_16h33.36.654,WTP_SM_Choice,2022.2.1,MacIntel,114.9425287,,,,,,,NAN,,NAN,1.09,4.91,,0,64,64,64,1,65,Sam,Rej,Participant_Images/101/101_Images/101_Image_9.jpeg,liked,2.682944783,,,,,,,,,,,,,,,,,,,,,,,,,,,
,,101,2024-05-21_16h33.36.654,WTP_SM_Choice,2022.2.1,MacIntel,114.9425287,,,,,space,2.8925,NAN,,NAN,1.09,4.91,,0,65,65,65,1,66,Sam,Rej,Participant_Images/101/101_Images/101_Image_10.jpeg,did not like,4.51984296,,,,,,,,,,,,,,,,,,,,,,,,,,,
,,101,2024-05-21_16h33.36.654,WTP_SM_Choice,2022.2.1,MacIntel,114.9425287,,,,,space,1.0782,NAN,,NAN,1.09,4.91,,0,66,66,66,1,67,Sam,Rej,Participant_Images/101/101_Images/101_Image_14.jpeg,did not like,3.195382774,,,,,,,,,,,,,,,,,,,,,,,,,,,
,,101,2024-05-21_16h33.36.654,WTP_SM_Choice,2022.2.1,MacIntel,114.9425287,,,,,space,3.3674,NAN,,NAN,1.09,4.91,,0,67,67,67,1,68,Sam,Rej,Participant_Images/101/101_Images/101_Image_12.jpeg,did not like,1.779333479,,,,,,,,,,,,,,,,,,,,,,,,,,,
,,101,2024-05-21_16h33.36.654,WTP_SM_Choice,2022.2.1,MacIntel,114.9425287,,,,,space,1.8514,NAN,,NAN,1.09,4.91,,0,68,68,68,1,69,Sam,Rej,Participant_Images/101/101_Images/101_Image_6.jpeg,liked,4.312468682,,,,,,,,,,,,,,,,,,,,,,,,,,,
,,101,2024-05-21_16h33.36.654,WTP_SM_Choice,2022.2.1,MacIntel,114.9425287,,,,,,,,,,,,,,,,,,,,,,,,space,11.1036,space,0.3188,0.01,1,0.9242,0,0,0,0,1,fourteen_1,fourteen_1,0,5,0.01,0.02,green,0,0,1,,,,,
,,101,2024-05-21_16h33.36.654,WTP_SM_Choice,2022.2.1,MacIntel,114.9425287,,,,,,,,,,,,,,,,,,,,,,,,,,,,0.02,1,3.5063,0,1,1,1,1,fourteen_2,fourteen_2,0,1,0.02,0.02,green,0,1,1,,,,,
,,101,2024-05-21_16h33.36.654,WTP_SM_Choice,2022.2.1,MacIntel,114.9425287,,,,,,,,,,,,,,,,,,,,,,,,,,,,0.02,2,4.0678,0,2,2,2,1,fourteen_3,fourteen_3,0,2,0.03,0.02,green,1,0,0,,,,,
,,101,2024-05-21_16h33.36.654,WTP_SM_Choice,2022.2.1,MacIntel,114.9425287,,,,,,,,,,,,,,,,,,,,,,,,,,,,0.04,1,2.2613,0,3,3,3,1,fourteen_4,fourteen_4,0,4,0.04,0.02,green,1,0,0,,,,,
,,101,2024-05-21_16h33.36.654,WTP_SM_Choice,2022.2.1,MacIntel,114.9425287,,,,,,,,,,,,,,,,,,,,,,,,,,,,,,,0,4,4,4,1,fourteen_5,fourteen_5,0,3,0.05,0.02,green,1,0,0,,,,,
,,101,2024-05-21_16h33.36.654,WTP_SM_Choice,2022.2.1,MacIntel,114.9425287,,,,,,,NAN,,NAN,1.18,4.82,,0,69,69,69,1,70,Sam,Rej,Participant_Images/101/101_Images/101_Image_24.jpeg,liked,4.940433059,,,,,,,,,,,,,,,,,,,,,,,,,,,
,,101,2024-05-21_16h33.36.654,WTP_SM_Choice,2022.2.1,MacIntel,114.9425287,,,,,space,4.0744,NAN,,NAN,1.18,4.82,,0,70,70,70,1,71,Sam,Rej,Participant_Images/101/101_Images/101_Image_11.jpeg,did not like,3.602308302,,,,,,,,,,,,,,,,,,,,,,,,,,,
,,101,2024-05-21_16h33.36.654,WTP_SM_Choice,2022.2.1,MacIntel,114.9425287,,,,,space,1.15,NAN,,NAN,1.18,4.82,,0,71,71,71,1,72,Sam,Rej,Participant_Images/101/101_Images/101_Image_5.jpeg,did not like,4.106391878,,,,,,,,,,,,,,,,,,,,,,,,,,,
,,101,2024-05-21_16h33.36.654,WTP_SM_Choice,2022.2.1,MacIntel,114.9425287,,,,,space,2.4247,NAN,,NAN,1.18,4.82,,0,72,72,72,1,73,Sam,Rej,Participant_Images/101/101_Images/101_Image_1.jpeg,did not like,3.799433026,,,,,,,,,,,,,,,,,,,,,,,,,,,
,,101,2024-05-21_16h33.36.654,WTP_SM_Choice,2022.2.1,MacIntel,114.9425287,,,,,space,8.8611,NAN,,NAN,1.18,4.82,,0,73,73,73,1,74,Sam,Rej,Participant_Images/101/101_Images/101_Image_2.jpeg,liked,5.246980764,,,,,,,,,,,,,,,,,,,,,,,,,,,
,,101,2024-05-21_16h33.36.654,WTP_SM_Choice,2022.2.1,MacIntel,114.9425287,,,,,,,,,,,,,,,,,,,,,,,,space,0.8602,space,0.27,0.01,2,0.8112,0,0,0,0,1,fifteen_1,fifteen_1,0,4,0.01,0.01,green,0,1,1,,,,,
,,101,2024-05-21_16h33.36.654,WTP_SM_Choice,2022.2.1,MacIntel,114.9425287,,,,,,,,,,,,,,,,,,,,,,,,,,,,0.01,2,2.5453,0,1,1,1,1,fifteen_2,fifteen_2,0,5,0.02,0.01,green,1,0,0,,,,,
,,101,2024-05-21_16h33.36.654,WTP_SM_Choice,2022.2.1,MacIntel,114.9425287,,,,,,,,,,,,,,,,,,,,,,,,,,,,0.01,2,0.7654,0,2,2,2,1,fifteen_3,fifteen_3,0,6,0.03,0.01,green,1,0,0,,,,,
,,101,2024-05-21_16h33.36.654,WTP_SM_Choice,2022.2.1,MacIntel,114.9425287,,,,,,,,,,,,,,,,,,,,,,,,,,,,0.01,2,0.5831,0,3,3,3,1,fifteen_4,fifteen_4,0,1,0.04,0.01,green,1,0,0,,,,,
,,101,2024-05-21_16h33.36.654,WTP_SM_Choice,2022.2.1,MacIntel,114.9425287,,,,,,,,,,,,,,,,,,,,,,,,,,,,0.01,2,0.6426,0,4,4,4,1,fifteen_5,fifteen_5,0,2,0.05,0.01,green,1,0,0,,,,,
,,101,2024-05-21_16h33.36.654,WTP_SM_Choice,2022.2.1,MacIntel,114.9425287,,,,,,,3,,5,1.23,4.77,,0,74,74,74,1,75,Sam,Rej,Participant_Images/101/101_Images/101_Image_23.jpeg,did not like,1.661473164,,,,,,,,,,,,,,,,,,,,,,,space,2.1309,,,
,,101,2024-05-21_16h33.36.654,WTP_SM_Choice,2022.2.1,MacIntel,114.9425287,,,space,2.409,space,3.254,NAN,,NAN,1.23,4.77,,0,75,75,75,1,76,Charlie,Rej,Participant_Images/101/101_Images/101_Image_18.jpeg,did not like,3.613205605,,,,,,,,,,,,,,,,,,,,,,,,,,,
,,101,2024-05-21_16h33.36.654,WTP_SM_Choice,2022.2.1,MacIntel,114.9425287,,,,,space,1.0367,NAN,,NAN,1.23,4.77,,0,76,76,76,1,77,Charlie,Rej,Participant_Images/101/101_Images/101_Image_25.jpeg,did not like,4.988446431,,,,,,,,,,,,,,,,,,,,,,,,,,,
,,101,2024-05-21_16h33.36.654,WTP_SM_Choice,2022.2.1,MacIntel,114.9425287,,,,,space,0.4861,NAN,,NAN,1.23,4.77,,0,77,77,77,1,78,Charlie,Rej,Participant_Images/101/101_Images/101_Image_23.jpeg,did not like,3.470791822,,,,,,,,,,,,,,,,,,,,,,,,,,,
,,101,2024-05-21_16h33.36.654,WTP_SM_Choice,2022.2.1,MacIntel,114.9425287,,,,,space,0.4788,NAN,,NAN,1.23,4.77,,0,78,78,78,1,79,Charlie,Rej,Participant_Images/101/101_Images/101_Image_9.jpeg,liked,3.820572462,,,,,,,,,,,,,,,,,,,,,,,,,,,
,,101,2024-05-21_16h33.36.654,WTP_SM_Choice,2022.2.1,MacIntel,114.9425287,,,,,,,,,,,,,,,,,,,,,,,,space,0.5233,space,0.3364,0.01,1,0.8131,0,0,0,0,1,sixteen_1,sixteen_1,0,5,0.01,0.02,green,0,0,1,,,,,
,,101,2024-05-21_16h33.36.654,WTP_SM_Choice,2022.2.1,MacIntel,114.9425287,,,,,,,,,,,,,,,,,,,,,,,,,,,,0.02,1,0.6362,0,1,1,1,1,sixteen_2,sixteen_2,0,1,0.02,0.02,green,0,1,1,,,,,
,,101,2024-05-21_16h33.36.654,WTP_SM_Choice,2022.2.1,MacIntel,114.9425287,,,,,,,,,,,,,,,,,,,,,,,,,,,,0.03,1,0.8339,0,2,2,2,1,sixteen_3,sixteen_3,0,2,0.03,0.02,green,1,0,0,,,,,
,,101,2024-05-21_16h33.36.654,WTP_SM_Choice,2022.2.1,MacIntel,114.9425287,,,,,,,,,,,,,,,,,,,,,,,,,,,,0.04,1,0.5851,0,3,3,3,1,sixteen_4,sixteen_4,0,4,0.04,0.02,green,1,0,0,,,,,
,,101,2024-05-21_16h33.36.654,WTP_SM_Choice,2022.2.1,MacIntel,114.9425287,,,,,,,,,,,,,,,,,,,,,,,,,,,,0.05,1,3.0704,0,4,4,4,1,sixteen_5,sixteen_5,0,3,0.05,0.02,green,1,0,0,,,,,
,,101,2024-05-21_16h33.36.654,WTP_SM_Choice,2022.2.1,MacIntel,114.9425287,,,,,,,NAN,,NAN,1.38,4.62,,0,79,79,79,1,80,Charlie,Rej,Participant_Images/101/101_Images/101_Image_16.jpeg,did not like,2.455989137,,,,,,,,,,,,,,,,,,,,,,,,,,,
,,101,2024-05-21_16h33.36.654,WTP_SM_Choice,2022.2.1,MacIntel,114.9425287,,,,,space,0.9919,NAN,,NAN,1.38,4.62,,0,80,80,80,1,81,Charlie,Rej,Participant_Images/101/101_Images/101_Image_1.jpeg,did not like,3.79605092,,,,,,,,,,,,,,,,,,,,,,,,,,,
,,101,2024-05-21_16h33.36.654,WTP_SM_Choice,2022.2.1,MacIntel,114.9425287,,,,,space,0.8482,NAN,,NAN,1.38,4.62,,0,81,81,81,1,82,Charlie,Rej,Participant_Images/101/101_Images/101_Image_22.jpeg,did not like,3.562416326,,,,,,,,,,,,,,,,,,,,,,,,,,,
,,101,2024-05-21_16h33.36.654,WTP_SM_Choice,2022.2.1,MacIntel,114.9425287,,,,,space,1.2831,NAN,,NAN,1.38,4.62,,0,82,82,82,1,83,Charlie,Rej,Participant_Images/101/101_Images/101_Image_6.jpeg,did not like,2.843822497,,,,,,,,,,,,,,,,,,,,,,,,,,,
,,101,2024-05-21_16h33.36.654,WTP_SM_Choice,2022.2.1,MacIntel,114.9425287,,,,,space,0.775,NAN,,NAN,1.38,4.62,,0,83,83,83,1,84,Charlie,Rej,Participant_Images/101/101_Images/101_Image_2.jpeg,did not like,3.546495948,,,,,,,,,,,,,,,,,,,,,,,,,,,
,,101,2024-05-21_16h33.36.654,WTP_SM_Choice,2022.2.1,MacIntel,114.9425287,,,,,,,,,,,,,,,,,,,,,,,,space,1.0675,space,0.5805,0.01,1,0.489,0,0,0,0,1,seventeen_1,seventeen_1,0,4,0.01,0.01,green,0,1,1,,,,,
,,101,2024-05-21_16h33.36.654,WTP_SM_Choice,2022.2.1,MacIntel,114.9425287,,,,,,,,,,,,,,,,,,,,,,,,,,,,0.02,1,0.7885,0,1,1,1,1,seventeen_2,seventeen_2,0,5,0.02,0.01,green,1,0,0,,,,,
,,101,2024-05-21_16h33.36.654,WTP_SM_Choice,2022.2.1,MacIntel,114.9425287,,,,,,,,,,,,,,,,,,,,,,,,,,,,0.03,1,2.6797,0,2,2,2,1,seventeen_3,seventeen_3,0,6,0.03,0.01,green,1,0,0,,,,,
,,101,2024-05-21_16h33.36.654,WTP_SM_Choice,2022.2.1,MacIntel,114.9425287,,,,,,,,,,,,,,,,,,,,,,,,,,,,0.04,1,0.7425,0,3,3,3,1,seventeen_4,seventeen_4,0,1,0.04,0.01,green,1,0,0,,,,,
,,101,2024-05-21_16h33.36.654,WTP_SM_Choice,2022.2.1,MacIntel,114.9425287,,,,,,,,,,,,,,,,,,,,,,,,,,,,0.05,1,2.8093,0,4,4,4,1,seventeen_5,seventeen_5,0,2,0.05,0.01,green,1,0,0,,,,,
,,101,2024-05-21_16h33.36.654,WTP_SM_Choice,2022.2.1,MacIntel,114.9425287,,,,,,,NAN,,NAN,1.53,4.47,,0,84,84,84,1,85,Charlie,Rej,Participant_Images/101/101_Images/101_Image_13.jpeg,liked,1.672012706,,,,,,,,,,,,,,,,,,,,,,,,,,,
,,101,2024-05-21_16h33.36.654,WTP_SM_Choice,2022.2.1,MacIntel,114.9425287,,,,,space,1.9272,NAN,,NAN,1.53,4.47,,0,85,85,85,1,86,Charlie,Rej,Participant_Images/101/101_Images/101_Image_4.jpeg,did not like,2.50187214,,,,,,,,,,,,,,,,,,,,,,,,,,,
,,101,2024-05-21_16h33.36.654,WTP_SM_Choice,2022.2.1,MacIntel,114.9425287,,,,,space,5.1287,NAN,,NAN,1.53,4.47,,0,86,86,86,1,87,Charlie,Rej,Participant_Images/101/101_Images/101_Image_11.jpeg,did not like,2.071164779,,,,,,,,,,,,,,,,,,,,,,,,,,,
,,101,2024-05-21_16h33.36.654,WTP_SM_Choice,2022.2.1,MacIntel,114.9425287,,,,,space,3.1595,NAN,,NAN,1.53,4.47,,0,87,87,87,1,88,Charlie,Rej,Participant_Images/101/101_Images/101_Image_5.jpeg,liked,4.438512181,,,,,,,,,,,,,,,,,,,,,,,,,,,
,,101,2024-05-21_16h33.36.654,WTP_SM_Choice,2022.2.1,MacIntel,114.9425287,,,,,space,8.2511,NAN,,NAN,1.53,4.47,,0,88,88,88,1,89,Charlie,Rej,Participant_Images/101/101_Images/101_Image_12.jpeg,did not like,2.682944783,,,,,,,,,,,,,,,,,,,,,,,,,,,
,,101,2024-05-21_16h33.36.654,WTP_SM_Choice,2022.2.1,MacIntel,114.9425287,,,,,,,,,,,,,,,,,,,,,,,,space,0.5563,space,0.5065,0.01,1,0.3106,0,0,0,0,1,eighteen_1,eighteen_1,0,5,0.01,0.02,green,0,0,1,,,,,
,,101,2024-05-21_16h33.36.654,WTP_SM_Choice,2022.2.1,MacIntel,114.9425287,,,,,,,,,,,,,,,,,,,,,,,,,,,,0.02,1,1.2193,0,1,1,1,1,eighteen_2,eighteen_2,0,1,0.02,0.02,green,0,1,1,,,,,
,,101,2024-05-21_16h33.36.654,WTP_SM_Choice,2022.2.1,MacIntel,114.9425287,,,,,,,,,,,,,,,,,,,,,,,,,,,,0.03,1,1.0595,0,2,2,2,1,eighteen_3,eighteen_3,0,2,0.03,0.02,green,1,0,0,,,,,
,,101,2024-05-21_16h33.36.654,WTP_SM_Choice,2022.2.1,MacIntel,114.9425287,,,,,,,,,,,,,,,,,,,,,,,,,,,,0.04,1,0.7998,0,3,3,3,1,eighteen_4,eighteen_4,0,4,0.04,0.02,green,1,0,0,,,,,
,,101,2024-05-21_16h33.36.654,WTP_SM_Choice,2022.2.1,MacIntel,114.9425287,,,,,,,,,,,,,,,,,,,,,,,,,,,,0.05,1,2.0211,0,4,4,4,1,eighteen_5,eighteen_5,0,3,0.05,0.02,green,1,0,0,,,,,
,,101,2024-05-21_16h33.36.654,WTP_SM_Choice,2022.2.1,MacIntel,114.9425287,,,,,,,NAN,,NAN,1.68,4.32,,0,89,89,89,1,90,Charlie,Rej,Participant_Images/101/101_Images/101_Image_21.jpeg,did not like,4.51984296,,,,,,,,,,,,,,,,,,,,,,,,,,,
,,101,2024-05-21_16h33.36.654,WTP_SM_Choice,2022.2.1,MacIntel,114.9425287,,,,,space,0.6964,NAN,,NAN,1.68,4.32,,0,90,90,90,1,91,Charlie,Rej,Participant_Images/101/101_Images/101_Image_3.jpeg,did not like,3.195382774,,,,,,,,,,,,,,,,,,,,,,,,,,,
,,101,2024-05-21_16h33.36.654,WTP_SM_Choice,2022.2.1,MacIntel,114.9425287,,,,,space,7.449,NAN,,NAN,1.68,4.32,,0,91,91,91,1,92,Charlie,Rej,Participant_Images/101/101_Images/101_Image_10.jpeg,did not like,1.779333479,,,,,,,,,,,,,,,,,,,,,,,,,,,
,,101,2024-05-21_16h33.36.654,WTP_SM_Choice,2022.2.1,MacIntel,114.9425287,,,,,space,0.4175,NAN,,NAN,1.68,4.32,,0,92,92,92,1,93,Charlie,Rej,Participant_Images/101/101_Images/101_Image_17.jpeg,liked,4.312468682,,,,,,,,,,,,,,,,,,,,,,,,,,,
,,101,2024-05-21_16h33.36.654,WTP_SM_Choice,2022.2.1,MacIntel,114.9425287,,,,,space,0.9339,NAN,,NAN,1.68,4.32,,0,93,93,93,1,94,Charlie,Rej,Participant_Images/101/101_Images/101_Image_20.jpeg,did not like,4.940433059,,,,,,,,,,,,,,,,,,,,,,,,,,,
,,101,2024-05-21_16h33.36.654,WTP_SM_Choice,2022.2.1,MacIntel,114.9425287,,,,,,,,,,,,,,,,,,,,,,,,space,1.7018,space,0.3955,0.01,1,0.3551,0,0,0,0,1,nineteen_1,nineteen_1,0,4,0.01,0.01,green,0,1,1,,,,,
,,101,2024-05-21_16h33.36.654,WTP_SM_Choice,2022.2.1,MacIntel,114.9425287,,,,,,,,,,,,,,,,,,,,,,,,,,,,0.02,1,3.23,0,1,1,1,1,nineteen_2,nineteen_2,0,5,0.02,0.01,green,1,0,0,,,,,
,,101,2024-05-21_16h33.36.654,WTP_SM_Choice,2022.2.1,MacIntel,114.9425287,,,,,,,,,,,,,,,,,,,,,,,,,,,,0.03,1,0.8787,0,2,2,2,1,nineteen_3,nineteen_3,0,6,0.03,0.01,green,1,0,0,,,,,
,,101,2024-05-21_16h33.36.654,WTP_SM_Choice,2022.2.1,MacIntel,114.9425287,,,,,,,,,,,,,,,,,,,,,,,,,,,,0.04,1,1.3493,0,3,3,3,1,nineteen_4,nineteen_4,0,1,0.04,0.01,green,1,0,0,,,,,
,,101,2024-05-21_16h33.36.654,WTP_SM_Choice,2022.2.1,MacIntel,114.9425287,,,,,,,,,,,,,,,,,,,,,,,,,,,,0.01,2,0.5532,0,4,4,4,1,nineteen_5,nineteen_5,0,2,0.05,0.01,green,1,0,0,,,,,
,,101,2024-05-21_16h33.36.654,WTP_SM_Choice,2022.2.1,MacIntel,114.9425287,,,,,,,NAN,,NAN,1.79,4.21,,0,94,94,94,1,95,Charlie,Rej,Participant_Images/101/101_Images/101_Image_8.jpeg,did not like,3.602308302,,,,,,,,,,,,,,,,,,,,,,,,,,,
,,101,2024-05-21_16h33.36.654,WTP_SM_Choice,2022.2.1,MacIntel,114.9425287,,,,,space,2.1434,NAN,,NAN,1.79,4.21,,0,95,95,95,1,96,Charlie,Rej,Participant_Images/101/101_Images/101_Image_15.jpeg,liked,4.106391878,,,,,,,,,,,,,,,,,,,,,,,,,,,
,,101,2024-05-21_16h33.36.654,WTP_SM_Choice,2022.2.1,MacIntel,114.9425287,,,,,space,0.4452,NAN,,NAN,1.79,4.21,,0,96,96,96,1,97,Charlie,Rej,Participant_Images/101/101_Images/101_Image_24.jpeg,liked,3.799433026,,,,,,,,,,,,,,,,,,,,,,,,,,,
,,101,2024-05-21_16h33.36.654,WTP_SM_Choice,2022.2.1,MacIntel,114.9425287,,,,,space,7.0824,NAN,,NAN,1.79,4.21,,0,97,97,97,1,98,Charlie,Rej,Participant_Images/101/101_Images/101_Image_19.jpeg,did not like,5.246980764,,,,,,,,,,,,,,,,,,,,,,,,,,,
,,101,2024-05-21_16h33.36.654,WTP_SM_Choice,2022.2.1,MacIntel,114.9425287,,,,,space,156.5673,NAN,,NAN,1.79,4.21,,0,98,98,98,1,99,Charlie,Rej,Participant_Images/101/101_Images/101_Image_7.jpeg,did not like,3.30081769,,,,,,,,,,,,,,,,,,,,,,,,,,,
,,101,2024-05-21_16h33.36.654,WTP_SM_Choice,2022.2.1,MacIntel,114.9425287,,,,,,,,,,,,,,,,,,,,,,,,space,0.5267,space,0.304,0.01,1,0.6545,0,0,0,0,1,twenty_1,twenty_1,0,5,0.01,0.02,green,0,0,1,,,,,
,,101,2024-05-21_16h33.36.654,WTP_SM_Choice,2022.2.1,MacIntel,114.9425287,,,,,,,,,,,,,,,,,,,,,,,,,,,,0.02,1,0.4639,0,1,1,1,1,twenty_2,twenty_2,0,1,0.02,0.02,green,0,1,1,,,,,
,,101,2024-05-21_16h33.36.654,WTP_SM_Choice,2022.2.1,MacIntel,114.9425287,,,,,,,,,,,,,,,,,,,,,,,,,,,,0.03,1,0.4957,0,2,2,2,1,twenty_3,twenty_3,0,2,0.03,0.02,green,1,0,0,,,,,
,,101,2024-05-21_16h33.36.654,WTP_SM_Choice,2022.2.1,MacIntel,114.9425287,,,,,,,,,,,,,,,,,,,,,,,,,,,,0.04,1,4.345,0,3,3,3,1,twenty_4,twenty_4,0,4,0.04,0.02,green,1,0,0,,,,,
,,101,2024-05-21_16h33.36.654,WTP_SM_Choice,2022.2.1,MacIntel,114.9425287,,,,,,,,,,,,,,,,,,,,,,,,,,,,0.05,1,0.5465,0,4,4,4,1,twenty_5,twenty_5,0,3,0.05,0.02,green,1,0,0,,,,,
,,101,2024-05-21_16h33.36.654,WTP_SM_Choice,2022.2.1,MacIntel,114.9425287,,,,,,,3,,5,1.94,4.06,,0,99,99,99,1,100,Charlie,Rej,Participant_Images/101/101_Images/101_Image_14.jpeg,liked,1.661473164,,,,,,,,,,,,,,,,,,,,,,,space,0.9432,,,
,,101,2024-05-21_16h33.36.654,WTP_SM_Choice,2022.2.1,MacIntel,114.9425287,,,,,,,,,,,,,,,,,,,,,,,,,,,,,,,,,,,,,,,,,,,,,,,,,space,1.593
